key_resp.keys,key_resp.rt,key_resp_16.keys,key_resp_16.rt,key_resp_2.keys,key_resp_2.rt,X Scale,ratio_pxpermm,screen_size_x,screen_size_y,testsize,key_resp_3.keys,key_resp_3.rt,key_resp_4.keys,key_resp_4.rt,line_size,key_resp_5.keys,key_resp_5.rt,key_resp_6.keys,key_resp_6.rt,key_resp_8.keys,key_resp_8.rt,key_resp_7.keys,key_resp_7.rt,key_resp_12.keys,key_resp_12.rt,key_resp_11.keys,key_resp_11.rt,key_resp_18.keys,key_resp_18.rt,key_resp_21.keys,key_resp_21.rt,key_resp_13.keys,key_resp_13.rt,key_resp_19.keys,key_resp_19.rt,ballposx,viewer_distance,trials.thisRepN,trials.thisTrialN,trials.thisN,trials.thisIndex,trials.ran,participant,session,date,expName,psychopyVersion,OS,frameRate,study_id,viewerdistancecm,DVA_to_distance,radius_F,radius_P,r_F,R_P,key_resp_20.keys,key_resp_20.rt,key_resp_14.keys,key_resp_14.rt,key_resp_15.keys,key_resp_15.rt,key_resp_17.keys,key_resp_17.rt,key_resp_9.keys,key_resp_9.rt,key_resp_10.keys,key_resp_10.rt,Colour_1,Ecc,mouse_5.x,mouse_5.y,mouse_5.leftButton,mouse_5.midButton,mouse_5.rightButton,mouse_5.clicked_name,Colour_2,similarity,response_time,mouse_10.x,mouse_10.y,mouse_10.leftButton,mouse_10.midButton,mouse_10.rightButton,mouse_10.clicked_name,mouse_7.x,mouse_7.y,mouse_7.leftButton,mouse_7.midButton,mouse_7.rightButton,catchnumberprac,mouse_6.x,mouse_6.y,mouse_6.leftButton,mouse_6.midButton,mouse_6.rightButton,duringprac.thisRepN,duringprac.thisTrialN,duringprac.thisN,duringprac.thisIndex,duringprac.ran,mouse_7.clicked_name,catchprac,mouse_6.clicked_name,key_resp_22.keys,key_resp_22.rt,Colour1,mouse.x,mouse.y,mouse.leftButton,mouse.midButton,mouse.rightButton,mouse.clicked_name,Colour2,mouse_2.x,mouse_2.y,mouse_2.leftButton,mouse_2.midButton,mouse_2.rightButton,mouse_2.clicked_name,mouse_3.x,mouse_3.y,mouse_3.leftButton,mouse_3.midButton,mouse_3.rightButton,catchresponse,catchnumber,catchtrialorder,mouse_11.x,mouse_11.y,mouse_11.leftButton,mouse_11.midButton,mouse_11.rightButton,trialnumber,trials_2.thisRepN,trials_2.thisTrialN,trials_2.thisN,trials_2.thisIndex,trials_2.ran,mouse_3.clicked_name,mouse_11.clicked_name,trials_3.thisRepN,trials_3.thisTrialN,trials_3.thisN,trials_3.thisIndex,trials_3.ran,answer1,rt1,answer2,rt2,answer3,rt3,answer4,rt4,answer5,rt5,answer6,rt6,answer7,rt7
space,2.257275,space,34.27112,space,8.136205,40.7,4.07,471.7444717,265.3562654,1920,space,23.026265,space,18.46936,81.4,space,9.721095,space,3.896775,space,2.00806,space,8.45008,space,8.71501,space,21.613005,space,18.60933,space,21.06164,space,12.11944,return,4.03751,20.16,765.35109,0,0,0,0,1,5ac56ef9fa3b4e0001737190,5fb5f1525434b8016d33ffbb,2020-11-19_01h15.45.795,Colour_Similarity_Experiment,2020.1.2,Win32,60,5fb5945709dec70f2d595766,,,,,,,,,,,,,,,,,,,,,,,,,,,,,,,,,,,,,,,,,,,,,,,,,,,,,,,,,,,,,,,,,,,,,,,,,,,,,,,,,,,,,,,,,,,,,,,,,,,,,,,,,,,,,,
,,,,,,,,,,,,,,,,,,,,,,,,,,,,,,,,,,return,3.357135,138.24,644.506181,1,0,1,0,1,5ac56ef9fa3b4e0001737190,5fb5f1525434b8016d33ffbb,2020-11-19_01h15.45.795,Colour_Similarity_Experiment,2020.1.2,Win32,60,5fb5945709dec70f2d595766,,,,,,,,,,,,,,,,,,,,,,,,,,,,,,,,,,,,,,,,,,,,,,,,,,,,,,,,,,,,,,,,,,,,,,,,,,,,,,,,,,,,,,,,,,,,,,,,,,,,,,,,,,,,,,
,,,,,,,,,,,,,,,,,,,,,,,,,,,,,,,,,,return,3.377215,135.36,647.4536178,2,0,2,0,1,5ac56ef9fa3b4e0001737190,5fb5f1525434b8016d33ffbb,2020-11-19_01h15.45.795,Colour_Similarity_Experiment,2020.1.2,Win32,60,5fb5945709dec70f2d595766,,,,,,,,,,,,,,,,,,,,,,,,,,,,,,,,,,,,,,,,,,,,,,,,,,,,,,,,,,,,,,,,,,,,,,,,,,,,,,,,,,,,,,,,,,,,,,,,,,,,,,,,,,,,,,
,,,,,,,,,,,,,,,,,,,,,,,,,,,,,,,,,,return,3.29117,149.76,632.7164338,3,0,3,0,1,5ac56ef9fa3b4e0001737190,5fb5f1525434b8016d33ffbb,2020-11-19_01h15.45.795,Colour_Similarity_Experiment,2020.1.2,Win32,60,5fb5945709dec70f2d595766,,,,,,,,,,,,,,,,,,,,,,,,,,,,,,,,,,,,,,,,,,,,,,,,,,,,,,,,,,,,,,,,,,,,,,,,,,,,,,,,,,,,,,,,,,,,,,,,,,,,,,,,,,,,,,
,,,,,,,,,,,,,,,,,,,,,,,,,,,,,,,,,,return,3.299995,149.76,632.7164338,4,0,4,0,1,5ac56ef9fa3b4e0001737190,5fb5f1525434b8016d33ffbb,2020-11-19_01h15.45.795,Colour_Similarity_Experiment,2020.1.2,Win32,60,5fb5945709dec70f2d595766,,,,,,,,,,,,,,,,,,,,,,,,,,,,,,,,,,,,,,,,,,,,,,,,,,,,,,,,,,,,,,,,,,,,,,,,,,,,,,,,,,,,,,,,,,,,,,,,,,,,,,,,,,,,,,
,,,,,,,,,,,,,,,,,,,,,,,,,,,,,,,,,,,,,,,,,,,5ac56ef9fa3b4e0001737190,5fb5f1525434b8016d33ffbb,2020-11-19_01h15.45.795,Colour_Similarity_Experiment,2020.1.2,Win32,60,5fb5945709dec70f2d595766,66,11.52033873,70.33166796,468.8777864,46.88777864,210.9950039,space,39.043,space,26.58977,space,63.79851,space,14.40442,space,3.91164,space,3.763695,6,PF,61,133,1,0,0,response1disk_5,9,7,19.706025,0,-2,1,0,0,rectangle_8,0,-2,1,0,0,3,0,-2,1,0,0,0,0,0,1,1,,,,,,,,,,,,,,,,,,,,,,,,,,,,,,,,,,,,,,,,,,,,,,,,,,,,,,,,,,,
,,,,,,,,,,,,,,,,,,,,,,,,,,,,,,,,,,,,,,,,,,,5ac56ef9fa3b4e0001737190,5fb5f1525434b8016d33ffbb,2020-11-19_01h15.45.795,Colour_Similarity_Experiment,2020.1.2,Win32,60,5fb5945709dec70f2d595766,,,,,,,,,,,,,,,,,,,3,FF,144,54,1,0,0,response1disk_5,6,6,8.182195,-2,-2,1,0,0,rectangle_8,-42,-152,1,0,0,3,-13,5,1,0,0,0,1,1,3,1,response5disk_7,3,rectangle_4,,,,,,,,,,,,,,,,,,,,,,,,,,,,,,,,,,,,,,,,,,,,,,,,,,,,,,,,
,,,,,,,,,,,,,,,,,,,,,,,,,,,,,,,,,,,,,,,,,,,5ac56ef9fa3b4e0001737190,5fb5f1525434b8016d33ffbb,2020-11-19_01h15.45.795,Colour_Similarity_Experiment,2020.1.2,Win32,60,5fb5945709dec70f2d595766,,,,,,,,,,,,,,,,,,,2,FF,52,113,1,0,0,response1disk_5,4,7,6.48914,6,-4,1,0,0,rectangle_8,6,-4,1,0,0,3,6,-4,1,0,0,0,2,2,0,1,,,,,,,,,,,,,,,,,,,,,,,,,,,,,,,,,,,,,,,,,,,,,,,,,,,,,,,,,,,
,,,,,,,,,,,,,,,,,,,,,,,,,,,,,,,,,,,,,,,,,,,5ac56ef9fa3b4e0001737190,5fb5f1525434b8016d33ffbb,2020-11-19_01h15.45.795,Colour_Similarity_Experiment,2020.1.2,Win32,60,5fb5945709dec70f2d595766,,,,,,,,,,,,,,,,,,,9,PF,37,105,1,0,0,response1disk_5,3,7,3.23827,-4,-14,1,0,0,rectangle_8,-4,-14,1,0,0,3,-4,-14,1,0,0,0,3,3,6,1,,,,,,,,,,,,,,,,,,,,,,,,,,,,,,,,,,,,,,,,,,,,,,,,,,,,,,,,,,,
,,,,,,,,,,,,,,,,,,,,,,,,,,,,,,,,,,,,,,,,,,,5ac56ef9fa3b4e0001737190,5fb5f1525434b8016d33ffbb,2020-11-19_01h15.45.795,Colour_Similarity_Experiment,2020.1.2,Win32,60,5fb5945709dec70f2d595766,,,,,,,,,,,,,,,,,,,6,FF,-99,-59,1,0,0,response5disk_5,7,2,6.45557,6,12,1,0,0,rectangle_8,-40,-126,1,0,0,3,-10,5,1,0,0,0,4,4,5,1,response5disk_7,3,rectangle_4,,,,,,,,,,,,,,,,,,,,,,,,,,,,,,,,,,,,,,,,,,,,,,,,,,,,,,,,
,,,,,,,,,,,,,,,,,,,,,,,,,,,,,,,,,,,,,,,,,,,5ac56ef9fa3b4e0001737190,5fb5f1525434b8016d33ffbb,2020-11-19_01h15.45.795,Colour_Similarity_Experiment,2020.1.2,Win32,60,5fb5945709dec70f2d595766,,,,,,,,,,,,,,,,,,,9,PF,68,113,1,0,0,response1disk_5,5,7,3.009405,8,5,1,0,0,rectangle_8,8,5,1,0,0,3,8,5,1,0,0,0,5,5,4,1,,,,,,,,,,,,,,,,,,,,,,,,,,,,,,,,,,,,,,,,,,,,,,,,,,,,,,,,,,,
,,,,,,,,,,,,,,,,,,,,,,,,,,,,,,,,,,,,,,,,,,,5ac56ef9fa3b4e0001737190,5fb5f1525434b8016d33ffbb,2020-11-19_01h15.45.795,Colour_Similarity_Experiment,2020.1.2,Win32,60,5fb5945709dec70f2d595766,,,,,,,,,,,,,,,,,,,8,PF,54,96,1,0,0,response1disk_5,5,7,2.80151,-6,-5,1,0,0,rectangle_8,-6,-5,1,0,0,3,-6,-5,1,0,0,0,6,6,2,1,,,,,,,,,,,,,,,,,,,,,,,,,,,,,,,,,,,,,,,,,,,,,,,,,,,,,,,,,,,
,,,,,,,,,,,,,,,,,,,,,,,,,,,,,,,,,,,,,,,,,,,5ac56ef9fa3b4e0001737190,5fb5f1525434b8016d33ffbb,2020-11-19_01h15.45.795,Colour_Similarity_Experiment,2020.1.2,Win32,60,5fb5945709dec70f2d595766,,,,,,,,,,,,,,,,,,,,PF,,,,,,,,0,2.39319,,,,,,,,,,,,,,,,,,,,,,,,,,space,16.1251,9,-40,109,1,0,0,response7disk,9,-3,-5,1,0,0,rectangle,-3,-5,1,0,0,,5,"[260,151,153,292,168,216,221,274,21,110,59,265,208,51,71,159,8,252,291,46]",-3,-5,1,0,0,1,0,0,0,106,1,,,,,,,,,,,,,,,,,,,,,
,,,,,,,,,,,,,,,,,,,,,,,,,,,,,,,,,,,,,,,,,,,5ac56ef9fa3b4e0001737190,5fb5f1525434b8016d33ffbb,2020-11-19_01h15.45.795,Colour_Similarity_Experiment,2020.1.2,Win32,60,5fb5945709dec70f2d595766,,,,,,,,,,,,,,,,,,,,FF,,,,,,,,7,2.620715,,,,,,,,,,,,,,,,,,,,,,,,,,,,7,92,115,1,0,0,response1disk,9,13,-11,1,0,0,rectangle,13,-11,1,0,0,,5,"[260,151,153,292,168,216,221,274,21,110,59,265,208,51,71,159,8,252,291,46]",13,-11,1,0,0,2,0,1,1,155,1,,,,,,,,,,,,,,,,,,,,,
,,,,,,,,,,,,,,,,,,,,,,,,,,,,,,,,,,,,,,,,,,,5ac56ef9fa3b4e0001737190,5fb5f1525434b8016d33ffbb,2020-11-19_01h15.45.795,Colour_Similarity_Experiment,2020.1.2,Win32,60,5fb5945709dec70f2d595766,,,,,,,,,,,,,,,,,,,,FF,,,,,,,,4,3.59568,,,,,,,,,,,,,,,,,,,,,,,,,,,,5,59,-131,1,0,0,response3disk,6,4,4,1,0,0,rectangle,4,4,1,0,0,,1,"[260,151,153,292,168,216,221,274,21,110,59,265,208,51,71,159,8,252,291,46]",4,4,1,0,0,3,0,2,2,12,1,,,,,,,,,,,,,,,,,,,,,
,,,,,,,,,,,,,,,,,,,,,,,,,,,,,,,,,,,,,,,,,,,5ac56ef9fa3b4e0001737190,5fb5f1525434b8016d33ffbb,2020-11-19_01h15.45.795,Colour_Similarity_Experiment,2020.1.2,Win32,60,5fb5945709dec70f2d595766,,,,,,,,,,,,,,,,,,,,FF,,,,,,,,3,3.957625,,,,,,,,,,,,,,,,,,,,,,,,,,,,3,-68,-93,1,0,0,response5disk,4,-2,-4,1,0,0,rectangle,-2,-4,1,0,0,,7,"[260,151,153,292,168,216,221,274,21,110,59,265,208,51,71,159,8,252,291,46]",-2,-4,1,0,0,4,0,3,3,110,1,,,,,,,,,,,,,,,,,,,,,
,,,,,,,,,,,,,,,,,,,,,,,,,,,,,,,,,,,,,,,,,,,5ac56ef9fa3b4e0001737190,5fb5f1525434b8016d33ffbb,2020-11-19_01h15.45.795,Colour_Similarity_Experiment,2020.1.2,Win32,60,5fb5945709dec70f2d595766,,,,,,,,,,,,,,,,,,,,PF,,,,,,,,6,2.37123,,,,,,,,,,,,,,,,,,,,,,,,,,,,3,123,89,1,0,0,response1disk,1,-7,11,1,0,0,rectangle,-7,11,1,0,0,,3,"[260,151,153,292,168,216,221,274,21,110,59,265,208,51,71,159,8,252,291,46]",-7,11,1,0,0,5,0,4,4,96,1,,,,,,,,,,,,,,,,,,,,,
,,,,,,,,,,,,,,,,,,,,,,,,,,,,,,,,,,,,,,,,,,,5ac56ef9fa3b4e0001737190,5fb5f1525434b8016d33ffbb,2020-11-19_01h15.45.795,Colour_Similarity_Experiment,2020.1.2,Win32,60,5fb5945709dec70f2d595766,,,,,,,,,,,,,,,,,,,,PF,,,,,,,,7,1.99472,,,,,,,,,,,,,,,,,,,,,,,,,,,,6,89,127,1,0,0,response1disk,9,5,-9,1,0,0,rectangle,5,-9,1,0,0,,3,"[260,151,153,292,168,216,221,274,21,110,59,265,208,51,71,159,8,252,291,46]",5,-9,1,0,0,6,0,5,5,45,1,,,,,,,,,,,,,,,,,,,,,
,,,,,,,,,,,,,,,,,,,,,,,,,,,,,,,,,,,,,,,,,,,5ac56ef9fa3b4e0001737190,5fb5f1525434b8016d33ffbb,2020-11-19_01h15.45.795,Colour_Similarity_Experiment,2020.1.2,Win32,60,5fb5945709dec70f2d595766,,,,,,,,,,,,,,,,,,,,PF,,,,,,,,3,2.10368,,,,,,,,,,,,,,,,,,,,,,,,,,,,1,-52,-126,1,0,0,response5disk,2,-11,-5,1,0,0,rectangle,-11,-5,1,0,0,,1,"[260,151,153,292,168,216,221,274,21,110,59,265,208,51,71,159,8,252,291,46]",-11,-5,1,0,0,7,0,6,6,24,1,,,,,,,,,,,,,,,,,,,,,
,,,,,,,,,,,,,,,,,,,,,,,,,,,,,,,,,,,,,,,,,,,5ac56ef9fa3b4e0001737190,5fb5f1525434b8016d33ffbb,2020-11-19_01h15.45.795,Colour_Similarity_Experiment,2020.1.2,Win32,60,5fb5945709dec70f2d595766,,,,,,,,,,,,,,,,,,,,PF,,,,,,,,0,1.900515,,,,,,,,,,,,,,,,,,,,,,,,,,,,1,-47,96,1,0,0,response7disk,1,8,-4,1,0,0,rectangle,-88,-54,1,0,0,,2,"[260,151,153,292,168,216,221,274,21,110,59,265,208,51,71,159,8,252,291,46]",-12,-5,1,0,0,8,0,7,7,76,1,response5disk_3,rectangle,,,,,,,,,,,,,,,,,,,
,,,,,,,,,,,,,,,,,,,,,,,,,,,,,,,,,,,,,,,,,,,5ac56ef9fa3b4e0001737190,5fb5f1525434b8016d33ffbb,2020-11-19_01h15.45.795,Colour_Similarity_Experiment,2020.1.2,Win32,60,5fb5945709dec70f2d595766,,,,,,,,,,,,,,,,,,,,FF,,,,,,,,7,2.95708,,,,,,,,,,,,,,,,,,,,,,,,,,,,1,50,108,1,0,0,response1disk,6,6,-11,1,0,0,rectangle,6,-11,1,0,0,,7,"[260,151,153,292,168,216,221,274,21,110,59,265,208,51,71,159,8,252,291,46]",6,-11,1,0,0,9,0,8,8,58,1,,,,,,,,,,,,,,,,,,,,,
,,,,,,,,,,,,,,,,,,,,,,,,,,,,,,,,,,,,,,,,,,,5ac56ef9fa3b4e0001737190,5fb5f1525434b8016d33ffbb,2020-11-19_01h15.45.795,Colour_Similarity_Experiment,2020.1.2,Win32,60,5fb5945709dec70f2d595766,,,,,,,,,,,,,,,,,,,,FF,,,,,,,,7,1.96788,,,,,,,,,,,,,,,,,,,,,,,,,,,,9,41,120,1,0,0,response1disk,5,0,6,1,0,0,rectangle,0,6,1,0,0,,0,"[260,151,153,292,168,216,221,274,21,110,59,265,208,51,71,159,8,252,291,46]",0,6,1,0,0,10,0,9,9,128,1,,,,,,,,,,,,,,,,,,,,,
,,,,,,,,,,,,,,,,,,,,,,,,,,,,,,,,,,,,,,,,,,,5ac56ef9fa3b4e0001737190,5fb5f1525434b8016d33ffbb,2020-11-19_01h15.45.795,Colour_Similarity_Experiment,2020.1.2,Win32,60,5fb5945709dec70f2d595766,,,,,,,,,,,,,,,,,,,,FF,,,,,,,,6,5.359615,,,,,,,,,,,,,,,,,,,,,,,,,,,,9,99,64,1,0,0,response1disk,7,2,-1,1,0,0,rectangle,2,-1,1,0,0,,3,"[260,151,153,292,168,216,221,274,21,110,59,265,208,51,71,159,8,252,291,46]",2,-1,1,0,0,11,0,10,10,100,1,,,,,,,,,,,,,,,,,,,,,
,,,,,,,,,,,,,,,,,,,,,,,,,,,,,,,,,,,,,,,,,,,5ac56ef9fa3b4e0001737190,5fb5f1525434b8016d33ffbb,2020-11-19_01h15.45.795,Colour_Similarity_Experiment,2020.1.2,Win32,60,5fb5945709dec70f2d595766,,,,,,,,,,,,,,,,,,,,FF,,,,,,,,2,2.163455,,,,,,,,,,,,,,,,,,,,,,,,,,,,1,-86,-61,1,0,0,response5disk,9,0,11,1,0,0,rectangle,0,11,1,0,0,,5,"[260,151,153,292,168,216,221,274,21,110,59,265,208,51,71,159,8,252,291,46]",0,11,1,0,0,12,0,11,11,123,1,,,,,,,,,,,,,,,,,,,,,
,,,,,,,,,,,,,,,,,,,,,,,,,,,,,,,,,,,,,,,,,,,5ac56ef9fa3b4e0001737190,5fb5f1525434b8016d33ffbb,2020-11-19_01h15.45.795,Colour_Similarity_Experiment,2020.1.2,Win32,60,5fb5945709dec70f2d595766,,,,,,,,,,,,,,,,,,,,FF,,,,,,,,4,5.832175,,,,,,,,,,,,,,,,,,,,,,,,,,,,8,39,-123,1,0,0,response3disk,1,8,-4,1,0,0,rectangle,8,-4,1,0,0,,5,"[260,151,153,292,168,216,221,274,21,110,59,265,208,51,71,159,8,252,291,46]",8,-4,1,0,0,13,0,12,12,20,1,,,,,,,,,,,,,,,,,,,,,
,,,,,,,,,,,,,,,,,,,,,,,,,,,,,,,,,,,,,,,,,,,5ac56ef9fa3b4e0001737190,5fb5f1525434b8016d33ffbb,2020-11-19_01h15.45.795,Colour_Similarity_Experiment,2020.1.2,Win32,60,5fb5945709dec70f2d595766,,,,,,,,,,,,,,,,,,,,FF,,,,,,,,4,4.27139,,,,,,,,,,,,,,,,,,,,,,,,,,,,8,54,-130,1,0,0,response3disk,7,-12,2,1,0,0,rectangle,-12,2,1,0,0,,3,"[260,151,153,292,168,216,221,274,21,110,59,265,208,51,71,159,8,252,291,46]",-12,2,1,0,0,14,0,13,13,86,1,,,,,,,,,,,,,,,,,,,,,
,,,,,,,,,,,,,,,,,,,,,,,,,,,,,,,,,,,,,,,,,,,5ac56ef9fa3b4e0001737190,5fb5f1525434b8016d33ffbb,2020-11-19_01h15.45.795,Colour_Similarity_Experiment,2020.1.2,Win32,60,5fb5945709dec70f2d595766,,,,,,,,,,,,,,,,,,,,FF,,,,,,,,2,1.956265,,,,,,,,,,,,,,,,,,,,,,,,,,,,9,-59,-59,1,0,0,response5disk,1,-15,0,1,0,0,rectangle,-15,0,1,0,0,,6,"[260,151,153,292,168,216,221,274,21,110,59,265,208,51,71,159,8,252,291,46]",-15,0,1,0,0,15,0,14,14,111,1,,,,,,,,,,,,,,,,,,,,,
,,,,,,,,,,,,,,,,,,,,,,,,,,,,,,,,,,,,,,,,,,,5ac56ef9fa3b4e0001737190,5fb5f1525434b8016d33ffbb,2020-11-19_01h15.45.795,Colour_Similarity_Experiment,2020.1.2,Win32,60,5fb5945709dec70f2d595766,,,,,,,,,,,,,,,,,,,,PF,,,,,,,,7,2.352145,,,,,,,,,,,,,,,,,,,,,,,,,,,,1,66,102,1,0,0,response1disk,3,6,-12,1,0,0,rectangle,6,-12,1,0,0,,3,"[260,151,153,292,168,216,221,274,21,110,59,265,208,51,71,159,8,252,291,46]",6,-12,1,0,0,16,0,15,15,1,1,,,,,,,,,,,,,,,,,,,,,
,,,,,,,,,,,,,,,,,,,,,,,,,,,,,,,,,,,,,,,,,,,5ac56ef9fa3b4e0001737190,5fb5f1525434b8016d33ffbb,2020-11-19_01h15.45.795,Colour_Similarity_Experiment,2020.1.2,Win32,60,5fb5945709dec70f2d595766,,,,,,,,,,,,,,,,,,,,PF,,,,,,,,6,2.13657,,,,,,,,,,,,,,,,,,,,,,,,,,,,3,113,35,1,0,0,response1disk,6,-9,-12,1,0,0,rectangle,-9,-12,1,0,0,,5,"[260,151,153,292,168,216,221,274,21,110,59,265,208,51,71,159,8,252,291,46]",-9,-12,1,0,0,17,0,16,16,47,1,,,,,,,,,,,,,,,,,,,,,
,,,,,,,,,,,,,,,,,,,,,,,,,,,,,,,,,,,,,,,,,,,5ac56ef9fa3b4e0001737190,5fb5f1525434b8016d33ffbb,2020-11-19_01h15.45.795,Colour_Similarity_Experiment,2020.1.2,Win32,60,5fb5945709dec70f2d595766,,,,,,,,,,,,,,,,,,,,PF,,,,,,,,6,3.01744,,,,,,,,,,,,,,,,,,,,,,,,,,,,7,95,50,1,0,0,response1disk,8,-1,9,1,0,0,rectangle,-1,9,1,0,0,,6,"[260,151,153,292,168,216,221,274,21,110,59,265,208,51,71,159,8,252,291,46]",-1,9,1,0,0,18,0,17,17,140,1,,,,,,,,,,,,,,,,,,,,,
,,,,,,,,,,,,,,,,,,,,,,,,,,,,,,,,,,,,,,,,,,,5ac56ef9fa3b4e0001737190,5fb5f1525434b8016d33ffbb,2020-11-19_01h15.45.795,Colour_Similarity_Experiment,2020.1.2,Win32,60,5fb5945709dec70f2d595766,,,,,,,,,,,,,,,,,,,,PF,,,,,,,,3,2.226265,,,,,,,,,,,,,,,,,,,,,,,,,,,,2,-38,-139,1,0,0,response5disk,1,10,3,1,0,0,rectangle,10,3,1,0,0,,1,"[260,151,153,292,168,216,221,274,21,110,59,265,208,51,71,159,8,252,291,46]",10,3,1,0,0,19,0,18,18,9,1,,,,,,,,,,,,,,,,,,,,,
,,,,,,,,,,,,,,,,,,,,,,,,,,,,,,,,,,,,,,,,,,,5ac56ef9fa3b4e0001737190,5fb5f1525434b8016d33ffbb,2020-11-19_01h15.45.795,Colour_Similarity_Experiment,2020.1.2,Win32,60,5fb5945709dec70f2d595766,,,,,,,,,,,,,,,,,,,,FF,,,,,,,,6,2.82165,,,,,,,,,,,,,,,,,,,,,,,,,,,,5,120,70,1,0,0,response1disk,8,7,-2,1,0,0,rectangle,7,-2,1,0,0,,7,"[260,151,153,292,168,216,221,274,21,110,59,265,208,51,71,159,8,252,291,46]",7,-2,1,0,0,20,0,19,19,16,1,,,,,,,,,,,,,,,,,,,,,
,,,,,,,,,,,,,,,,,,,,,,,,,,,,,,,,,,,,,,,,,,,5ac56ef9fa3b4e0001737190,5fb5f1525434b8016d33ffbb,2020-11-19_01h15.45.795,Colour_Similarity_Experiment,2020.1.2,Win32,60,5fb5945709dec70f2d595766,,,,,,,,,,,,,,,,,,,,FF,,,,,,,,6,6.88647,,,,,,,,,,,,,,,,,,,,,,,,,,,,6,104,30,1,0,0,response1disk,8,-7,-2,1,0,0,rectangle,-116,37,1,0,0,1,1,"[260,151,153,292,168,216,221,274,21,110,59,265,208,51,71,159,8,252,291,46]",17,10,1,0,0,21,0,20,20,133,1,response7disk_3,rectangle,,,,,,,,,,,,,,,,,,,
,,,,,,,,,,,,,,,,,,,,,,,,,,,,,,,,,,,,,,,,,,,5ac56ef9fa3b4e0001737190,5fb5f1525434b8016d33ffbb,2020-11-19_01h15.45.795,Colour_Similarity_Experiment,2020.1.2,Win32,60,5fb5945709dec70f2d595766,,,,,,,,,,,,,,,,,,,,FF,,,,,,,,4,2.472365,,,,,,,,,,,,,,,,,,,,,,,,,,,,2,31,-71,1,0,0,response3disk,9,-12,-2,1,0,0,rectangle,-12,-2,1,0,0,1,1,"[260,151,153,292,168,216,221,274,21,110,59,265,208,51,71,159,8,252,291,46]",-12,-2,1,0,0,22,0,21,21,72,1,,,,,,,,,,,,,,,,,,,,,
,,,,,,,,,,,,,,,,,,,,,,,,,,,,,,,,,,,,,,,,,,,5ac56ef9fa3b4e0001737190,5fb5f1525434b8016d33ffbb,2020-11-19_01h15.45.795,Colour_Similarity_Experiment,2020.1.2,Win32,60,5fb5945709dec70f2d595766,,,,,,,,,,,,,,,,,,,,FF,,,,,,,,2,2.41241,,,,,,,,,,,,,,,,,,,,,,,,,,,,9,-93,-38,1,0,0,response5disk,8,1,-15,1,0,0,rectangle,1,-15,1,0,0,1,1,"[260,151,153,292,168,216,221,274,21,110,59,265,208,51,71,159,8,252,291,46]",1,-15,1,0,0,23,0,22,22,6,1,,,,,,,,,,,,,,,,,,,,,
,,,,,,,,,,,,,,,,,,,,,,,,,,,,,,,,,,,,,,,,,,,5ac56ef9fa3b4e0001737190,5fb5f1525434b8016d33ffbb,2020-11-19_01h15.45.795,Colour_Similarity_Experiment,2020.1.2,Win32,60,5fb5945709dec70f2d595766,,,,,,,,,,,,,,,,,,,,PF,,,,,,,,2,1.643965,,,,,,,,,,,,,,,,,,,,,,,,,,,,4,-106,-57,1,0,0,response5disk,5,-13,-7,1,0,0,rectangle,-13,-7,1,0,0,1,7,"[260,151,153,292,168,216,221,274,21,110,59,265,208,51,71,159,8,252,291,46]",-13,-7,1,0,0,24,0,23,23,49,1,,,,,,,,,,,,,,,,,,,,,
,,,,,,,,,,,,,,,,,,,,,,,,,,,,,,,,,,,,,,,,,,,5ac56ef9fa3b4e0001737190,5fb5f1525434b8016d33ffbb,2020-11-19_01h15.45.795,Colour_Similarity_Experiment,2020.1.2,Win32,60,5fb5945709dec70f2d595766,,,,,,,,,,,,,,,,,,,,FF,,,,,,,,0,1.06436,,,,,,,,,,,,,,,,,,,,,,,,,,,,1,-73,116,1,0,0,response7disk,1,-4,0,1,0,0,rectangle,-4,0,1,0,0,1,1,"[260,151,153,292,168,216,221,274,21,110,59,265,208,51,71,159,8,252,291,46]",-4,0,1,0,0,25,0,24,24,151,1,,,,,,,,,,,,,,,,,,,,,
,,,,,,,,,,,,,,,,,,,,,,,,,,,,,,,,,,,,,,,,,,,5ac56ef9fa3b4e0001737190,5fb5f1525434b8016d33ffbb,2020-11-19_01h15.45.795,Colour_Similarity_Experiment,2020.1.2,Win32,60,5fb5945709dec70f2d595766,,,,,,,,,,,,,,,,,,,,FF,,,,,,,,6,1.72713,,,,,,,,,,,,,,,,,,,,,,,,,,,,7,107,56,1,0,0,response1disk,1,3,0,1,0,0,rectangle,3,0,1,0,0,1,2,"[260,151,153,292,168,216,221,274,21,110,59,265,208,51,71,159,8,252,291,46]",3,0,1,0,0,26,0,25,25,132,1,,,,,,,,,,,,,,,,,,,,,
,,,,,,,,,,,,,,,,,,,,,,,,,,,,,,,,,,,,,,,,,,,5ac56ef9fa3b4e0001737190,5fb5f1525434b8016d33ffbb,2020-11-19_01h15.45.795,Colour_Similarity_Experiment,2020.1.2,Win32,60,5fb5945709dec70f2d595766,,,,,,,,,,,,,,,,,,,,PF,,,,,,,,6,2.791465,,,,,,,,,,,,,,,,,,,,,,,,,,,,5,93,59,1,0,0,response1disk,2,-3,-6,1,0,0,rectangle,-3,-6,1,0,0,1,0,"[260,151,153,292,168,216,221,274,21,110,59,265,208,51,71,159,8,252,291,46]",-3,-6,1,0,0,27,0,26,26,129,1,,,,,,,,,,,,,,,,,,,,,
,,,,,,,,,,,,,,,,,,,,,,,,,,,,,,,,,,,,,,,,,,,5ac56ef9fa3b4e0001737190,5fb5f1525434b8016d33ffbb,2020-11-19_01h15.45.795,Colour_Similarity_Experiment,2020.1.2,Win32,60,5fb5945709dec70f2d595766,,,,,,,,,,,,,,,,,,,,FF,,,,,,,,3,2.467075,,,,,,,,,,,,,,,,,,,,,,,,,,,,3,-34,-125,1,0,0,response5disk,2,9,4,1,0,0,rectangle,9,4,1,0,0,1,1,"[260,151,153,292,168,216,221,274,21,110,59,265,208,51,71,159,8,252,291,46]",9,4,1,0,0,28,0,27,27,93,1,,,,,,,,,,,,,,,,,,,,,
,,,,,,,,,,,,,,,,,,,,,,,,,,,,,,,,,,,,,,,,,,,5ac56ef9fa3b4e0001737190,5fb5f1525434b8016d33ffbb,2020-11-19_01h15.45.795,Colour_Similarity_Experiment,2020.1.2,Win32,60,5fb5945709dec70f2d595766,,,,,,,,,,,,,,,,,,,,FF,,,,,,,,7,5.373885,,,,,,,,,,,,,,,,,,,,,,,,,,,,5,68,129,1,0,0,response1disk,2,2,8,1,0,0,rectangle,2,8,1,0,0,1,6,"[260,151,153,292,168,216,221,274,21,110,59,265,208,51,71,159,8,252,291,46]",2,8,1,0,0,29,0,28,28,55,1,,,,,,,,,,,,,,,,,,,,,
,,,,,,,,,,,,,,,,,,,,,,,,,,,,,,,,,,,,,,,,,,,5ac56ef9fa3b4e0001737190,5fb5f1525434b8016d33ffbb,2020-11-19_01h15.45.795,Colour_Similarity_Experiment,2020.1.2,Win32,60,5fb5945709dec70f2d595766,,,,,,,,,,,,,,,,,,,,FF,,,,,,,,5,1.92711,,,,,,,,,,,,,,,,,,,,,,,,,,,,6,131,-57,1,0,0,response3disk,4,3,7,1,0,0,rectangle,3,7,1,0,0,1,5,"[260,151,153,292,168,216,221,274,21,110,59,265,208,51,71,159,8,252,291,46]",3,7,1,0,0,30,0,29,29,56,1,,,,,,,,,,,,,,,,,,,,,
,,,,,,,,,,,,,,,,,,,,,,,,,,,,,,,,,,,,,,,,,,,5ac56ef9fa3b4e0001737190,5fb5f1525434b8016d33ffbb,2020-11-19_01h15.45.795,Colour_Similarity_Experiment,2020.1.2,Win32,60,5fb5945709dec70f2d595766,,,,,,,,,,,,,,,,,,,,FF,,,,,,,,7,1.97091,,,,,,,,,,,,,,,,,,,,,,,,,,,,4,36,113,1,0,0,response1disk,1,-3,13,1,0,0,rectangle,-3,13,1,0,0,1,5,"[260,151,153,292,168,216,221,274,21,110,59,265,208,51,71,159,8,252,291,46]",-3,13,1,0,0,31,0,30,30,102,1,,,,,,,,,,,,,,,,,,,,,
,,,,,,,,,,,,,,,,,,,,,,,,,,,,,,,,,,,,,,,,,,,5ac56ef9fa3b4e0001737190,5fb5f1525434b8016d33ffbb,2020-11-19_01h15.45.795,Colour_Similarity_Experiment,2020.1.2,Win32,60,5fb5945709dec70f2d595766,,,,,,,,,,,,,,,,,,,,PF,,,,,,,,4,4.161835,,,,,,,,,,,,,,,,,,,,,,,,,,,,2,60,-129,1,0,0,response3disk,9,0,12,1,0,0,rectangle,0,12,1,0,0,1,6,"[260,151,153,292,168,216,221,274,21,110,59,265,208,51,71,159,8,252,291,46]",0,12,1,0,0,32,0,31,31,39,1,,,,,,,,,,,,,,,,,,,,,
,,,,,,,,,,,,,,,,,,,,,,,,,,,,,,,,,,,,,,,,,,,5ac56ef9fa3b4e0001737190,5fb5f1525434b8016d33ffbb,2020-11-19_01h15.45.795,Colour_Similarity_Experiment,2020.1.2,Win32,60,5fb5945709dec70f2d595766,,,,,,,,,,,,,,,,,,,,PF,,,,,,,,5,2.482035,,,,,,,,,,,,,,,,,,,,,,,,,,,,9,102,-73,1,0,0,response3disk,7,-3,-5,1,0,0,rectangle,-3,-5,1,0,0,1,0,"[260,151,153,292,168,216,221,274,21,110,59,265,208,51,71,159,8,252,291,46]",-3,-5,1,0,0,33,0,32,32,121,1,,,,,,,,,,,,,,,,,,,,,
,,,,,,,,,,,,,,,,,,,,,,,,,,,,,,,,,,,,,,,,,,,5ac56ef9fa3b4e0001737190,5fb5f1525434b8016d33ffbb,2020-11-19_01h15.45.795,Colour_Similarity_Experiment,2020.1.2,Win32,60,5fb5945709dec70f2d595766,,,,,,,,,,,,,,,,,,,,PF,,,,,,,,1,2.50304,,,,,,,,,,,,,,,,,,,,,,,,,,,,5,-96,40,1,0,0,response7disk,6,-8,3,1,0,0,rectangle,-8,3,1,0,0,1,5,"[260,151,153,292,168,216,221,274,21,110,59,265,208,51,71,159,8,252,291,46]",-8,3,1,0,0,34,0,33,33,103,1,,,,,,,,,,,,,,,,,,,,,
,,,,,,,,,,,,,,,,,,,,,,,,,,,,,,,,,,,,,,,,,,,5ac56ef9fa3b4e0001737190,5fb5f1525434b8016d33ffbb,2020-11-19_01h15.45.795,Colour_Similarity_Experiment,2020.1.2,Win32,60,5fb5945709dec70f2d595766,,,,,,,,,,,,,,,,,,,,FF,,,,,,,,7,3.23694,,,,,,,,,,,,,,,,,,,,,,,,,,,,7,64,112,1,0,0,response1disk,2,4,2,1,0,0,rectangle,4,2,1,0,0,1,1,"[260,151,153,292,168,216,221,274,21,110,59,265,208,51,71,159,8,252,291,46]",4,2,1,0,0,35,0,34,34,138,1,,,,,,,,,,,,,,,,,,,,,
,,,,,,,,,,,,,,,,,,,,,,,,,,,,,,,,,,,,,,,,,,,5ac56ef9fa3b4e0001737190,5fb5f1525434b8016d33ffbb,2020-11-19_01h15.45.795,Colour_Similarity_Experiment,2020.1.2,Win32,60,5fb5945709dec70f2d595766,,,,,,,,,,,,,,,,,,,,FF,,,,,,,,7,1.867,,,,,,,,,,,,,,,,,,,,,,,,,,,,4,70,108,1,0,0,response1disk,8,-1,-7,1,0,0,rectangle,-1,-7,1,0,0,1,6,"[260,151,153,292,168,216,221,274,21,110,59,265,208,51,71,159,8,252,291,46]",-1,-7,1,0,0,36,0,35,35,35,1,,,,,,,,,,,,,,,,,,,,,
,,,,,,,,,,,,,,,,,,,,,,,,,,,,,,,,,,,,,,,,,,,5ac56ef9fa3b4e0001737190,5fb5f1525434b8016d33ffbb,2020-11-19_01h15.45.795,Colour_Similarity_Experiment,2020.1.2,Win32,60,5fb5945709dec70f2d595766,,,,,,,,,,,,,,,,,,,,FF,,,,,,,,7,1.919425,,,,,,,,,,,,,,,,,,,,,,,,,,,,1,56,118,1,0,0,response1disk,4,-3,-7,1,0,0,rectangle,-3,-7,1,0,0,1,4,"[260,151,153,292,168,216,221,274,21,110,59,265,208,51,71,159,8,252,291,46]",-3,-7,1,0,0,37,0,36,36,135,1,,,,,,,,,,,,,,,,,,,,,
,,,,,,,,,,,,,,,,,,,,,,,,,,,,,,,,,,,,,,,,,,,5ac56ef9fa3b4e0001737190,5fb5f1525434b8016d33ffbb,2020-11-19_01h15.45.795,Colour_Similarity_Experiment,2020.1.2,Win32,60,5fb5945709dec70f2d595766,,,,,,,,,,,,,,,,,,,,FF,,,,,,,,7,1.86064,,,,,,,,,,,,,,,,,,,,,,,,,,,,1,61,114,1,0,0,response1disk,3,14,-5,1,0,0,rectangle,14,-5,1,0,0,1,5,"[260,151,153,292,168,216,221,274,21,110,59,265,208,51,71,159,8,252,291,46]",14,-5,1,0,0,38,0,37,37,99,1,,,,,,,,,,,,,,,,,,,,,
,,,,,,,,,,,,,,,,,,,,,,,,,,,,,,,,,,,,,,,,,,,5ac56ef9fa3b4e0001737190,5fb5f1525434b8016d33ffbb,2020-11-19_01h15.45.795,Colour_Similarity_Experiment,2020.1.2,Win32,60,5fb5945709dec70f2d595766,,,,,,,,,,,,,,,,,,,,FF,,,,,,,,5,2.15062,,,,,,,,,,,,,,,,,,,,,,,,,,,,9,131,-59,1,0,0,response3disk,2,-6,-3,1,0,0,rectangle,-6,-3,1,0,0,1,0,"[260,151,153,292,168,216,221,274,21,110,59,265,208,51,71,159,8,252,291,46]",-6,-3,1,0,0,39,0,38,38,11,1,,,,,,,,,,,,,,,,,,,,,
,,,,,,,,,,,,,,,,,,,,,,,,,,,,,,,,,,,,,,,,,,,5ac56ef9fa3b4e0001737190,5fb5f1525434b8016d33ffbb,2020-11-19_01h15.45.795,Colour_Similarity_Experiment,2020.1.2,Win32,60,5fb5945709dec70f2d595766,,,,,,,,,,,,,,,,,,,,PF,,,,,,,,7,2.352655,,,,,,,,,,,,,,,,,,,,,,,,,,,,2,82,100,1,0,0,response1disk,5,9,2,1,0,0,rectangle,9,2,1,0,0,1,5,"[260,151,153,292,168,216,221,274,21,110,59,265,208,51,71,159,8,252,291,46]",9,2,1,0,0,40,0,39,39,147,1,,,,,,,,,,,,,,,,,,,,,
,,,,,,,,,,,,,,,,,,,,,,,,,,,,,,,,,,,,,,,,,,,5ac56ef9fa3b4e0001737190,5fb5f1525434b8016d33ffbb,2020-11-19_01h15.45.795,Colour_Similarity_Experiment,2020.1.2,Win32,60,5fb5945709dec70f2d595766,,,,,,,,,,,,,,,,,,,,FF,,,,,,,,7,1.460255,,,,,,,,,,,,,,,,,,,,,,,,,,,,9,45,98,1,0,0,response1disk,6,11,-1,1,0,0,rectangle,11,-1,1,0,0,1,1,"[260,151,153,292,168,216,221,274,21,110,59,265,208,51,71,159,8,252,291,46]",11,-1,1,0,0,41,0,40,40,117,1,,,,,,,,,,,,,,,,,,,,,
,,,,,,,,,,,,,,,,,,,,,,,,,,,,,,,,,,,,,,,,,,,5ac56ef9fa3b4e0001737190,5fb5f1525434b8016d33ffbb,2020-11-19_01h15.45.795,Colour_Similarity_Experiment,2020.1.2,Win32,60,5fb5945709dec70f2d595766,,,,,,,,,,,,,,,,,,,,PF,,,,,,,,7,1.18472,,,,,,,,,,,,,,,,,,,,,,,,,,,,7,57,119,1,0,0,response1disk,3,4,-8,1,0,0,rectangle,4,-8,1,0,0,1,6,"[260,151,153,292,168,216,221,274,21,110,59,265,208,51,71,159,8,252,291,46]",4,-8,1,0,0,42,0,41,41,81,1,,,,,,,,,,,,,,,,,,,,,
,,,,,,,,,,,,,,,,,,,,,,,,,,,,,,,,,,,,,,,,,,,5ac56ef9fa3b4e0001737190,5fb5f1525434b8016d33ffbb,2020-11-19_01h15.45.795,Colour_Similarity_Experiment,2020.1.2,Win32,60,5fb5945709dec70f2d595766,,,,,,,,,,,,,,,,,,,,FF,,,,,,,,3,1.75407,,,,,,,,,,,,,,,,,,,,,,,,,,,,8,-52,-107,1,0,0,response5disk,9,-3,-1,1,0,0,rectangle,-3,-1,1,0,0,1,0,"[260,151,153,292,168,216,221,274,21,110,59,265,208,51,71,159,8,252,291,46]",-3,-1,1,0,0,43,0,42,42,105,1,,,,,,,,,,,,,,,,,,,,,
,,,,,,,,,,,,,,,,,,,,,,,,,,,,,,,,,,,,,,,,,,,5ac56ef9fa3b4e0001737190,5fb5f1525434b8016d33ffbb,2020-11-19_01h15.45.795,Colour_Similarity_Experiment,2020.1.2,Win32,60,5fb5945709dec70f2d595766,,,,,,,,,,,,,,,,,,,,FF,,,,,,,,7,0.990135,,,,,,,,,,,,,,,,,,,,,,,,,,,,2,37,86,1,0,0,response1disk,7,0,-12,1,0,0,rectangle,0,-12,1,0,0,1,4,"[260,151,153,292,168,216,221,274,21,110,59,265,208,51,71,159,8,252,291,46]",0,-12,1,0,0,44,0,43,43,63,1,,,,,,,,,,,,,,,,,,,,,
,,,,,,,,,,,,,,,,,,,,,,,,,,,,,,,,,,,,,,,,,,,5ac56ef9fa3b4e0001737190,5fb5f1525434b8016d33ffbb,2020-11-19_01h15.45.795,Colour_Similarity_Experiment,2020.1.2,Win32,60,5fb5945709dec70f2d595766,,,,,,,,,,,,,,,,,,,,PF,,,,,,,,5,4.48368,,,,,,,,,,,,,,,,,,,,,,,,,,,,8,106,-45,1,0,0,response3disk,7,14,-1,1,0,0,rectangle,14,-1,1,0,0,1,2,"[260,151,153,292,168,216,221,274,21,110,59,265,208,51,71,159,8,252,291,46]",14,-1,1,0,0,45,0,44,44,23,1,,,,,,,,,,,,,,,,,,,,,
,,,,,,,,,,,,,,,,,,,,,,,,,,,,,,,,,,,,,,,,,,,5ac56ef9fa3b4e0001737190,5fb5f1525434b8016d33ffbb,2020-11-19_01h15.45.795,Colour_Similarity_Experiment,2020.1.2,Win32,60,5fb5945709dec70f2d595766,,,,,,,,,,,,,,,,,,,,FF,,,,,,,,7,3.16433,,,,,,,,,,,,,,,,,,,,,,,,,,,,2,63,108,1,0,0,response1disk,8,12,1,1,0,0,rectangle,-49,106,1,0,0,0,0,"[260,151,153,292,168,216,221,274,21,110,59,265,208,51,71,159,8,252,291,46]",-7,-9,1,0,0,46,0,45,45,62,1,response7disk_3,rectangle,,,,,,,,,,,,,,,,,,,
,,,,,,,,,,,,,,,,,,,,,,,,,,,,,,,,,,,,,,,,,,,5ac56ef9fa3b4e0001737190,5fb5f1525434b8016d33ffbb,2020-11-19_01h15.45.795,Colour_Similarity_Experiment,2020.1.2,Win32,60,5fb5945709dec70f2d595766,,,,,,,,,,,,,,,,,,,,PF,,,,,,,,7,2.19655,,,,,,,,,,,,,,,,,,,,,,,,,,,,9,48,102,1,0,0,response1disk,4,-15,-3,1,0,0,rectangle,-15,-3,1,0,0,0,1,"[260,151,153,292,168,216,221,274,21,110,59,265,208,51,71,159,8,252,291,46]",-15,-3,1,0,0,47,0,46,46,114,1,,,,,,,,,,,,,,,,,,,,,
,,,,,,,,,,,,,,,,,,,,,,,,,,,,,,,,,,,,,,,,,,,5ac56ef9fa3b4e0001737190,5fb5f1525434b8016d33ffbb,2020-11-19_01h15.45.795,Colour_Similarity_Experiment,2020.1.2,Win32,60,5fb5945709dec70f2d595766,,,,,,,,,,,,,,,,,,,,PF,,,,,,,,6,2.91198,,,,,,,,,,,,,,,,,,,,,,,,,,,,6,124,79,1,0,0,response1disk,8,24,8,1,0,0,rectangle,24,8,1,0,0,0,3,"[260,151,153,292,168,216,221,274,21,110,59,265,208,51,71,159,8,252,291,46]",24,8,1,0,0,48,0,47,47,64,1,,,,,,,,,,,,,,,,,,,,,
,,,,,,,,,,,,,,,,,,,,,,,,,,,,,,,,,,,,,,,,,,,5ac56ef9fa3b4e0001737190,5fb5f1525434b8016d33ffbb,2020-11-19_01h15.45.795,Colour_Similarity_Experiment,2020.1.2,Win32,60,5fb5945709dec70f2d595766,,,,,,,,,,,,,,,,,,,,FF,,,,,,,,7,2.177065,,,,,,,,,,,,,,,,,,,,,,,,,,,,2,81,119,1,0,0,response1disk,4,10,-15,1,0,0,rectangle,10,-15,1,0,0,0,6,"[260,151,153,292,168,216,221,274,21,110,59,265,208,51,71,159,8,252,291,46]",10,-15,1,0,0,49,0,48,48,145,1,,,,,,,,,,,,,,,,,,,,,
,,,,,,,,,,,,,,,,,,,,,,,,,,,,,,,,,,,,,,,,,,,5ac56ef9fa3b4e0001737190,5fb5f1525434b8016d33ffbb,2020-11-19_01h15.45.795,Colour_Similarity_Experiment,2020.1.2,Win32,60,5fb5945709dec70f2d595766,,,,,,,,,,,,,,,,,,,,FF,,,,,,,,7,1.33242,,,,,,,,,,,,,,,,,,,,,,,,,,,,6,79,108,1,0,0,response1disk,1,-3,-3,1,0,0,rectangle,-3,-3,1,0,0,0,4,"[260,151,153,292,168,216,221,274,21,110,59,265,208,51,71,159,8,252,291,46]",-3,-3,1,0,0,50,0,49,49,5,1,,,,,,,,,,,,,,,,,,,,,
,,,,,,,,,,,,,,,,,,,,,,,,,,,,,,,,,,,,,,,,,,,5ac56ef9fa3b4e0001737190,5fb5f1525434b8016d33ffbb,2020-11-19_01h15.45.795,Colour_Similarity_Experiment,2020.1.2,Win32,60,5fb5945709dec70f2d595766,,,,,,,,,,,,,,,,,,,,PF,,,,,,,,5,2.44273,,,,,,,,,,,,,,,,,,,,,,,,,,,,5,133,-63,1,0,0,response3disk,7,-23,3,1,0,0,rectangle,-112,36,1,0,0,1,1,"[260,151,153,292,168,216,221,274,21,110,59,265,208,51,71,159,8,252,291,46]",-13,-7,1,0,0,51,0,50,50,146,1,response7disk_3,rectangle,,,,,,,,,,,,,,,,,,,
,,,,,,,,,,,,,,,,,,,,,,,,,,,,,,,,,,,,,,,,,,,5ac56ef9fa3b4e0001737190,5fb5f1525434b8016d33ffbb,2020-11-19_01h15.45.795,Colour_Similarity_Experiment,2020.1.2,Win32,60,5fb5945709dec70f2d595766,,,,,,,,,,,,,,,,,,,,PF,,,,,,,,7,1.351425,,,,,,,,,,,,,,,,,,,,,,,,,,,,4,53,106,1,0,0,response1disk,2,10,-2,1,0,0,rectangle,10,-2,1,0,0,1,6,"[260,151,153,292,168,216,221,274,21,110,59,265,208,51,71,159,8,252,291,46]",10,-2,1,0,0,52,0,51,51,108,1,,,,,,,,,,,,,,,,,,,,,
,,,,,,,,,,,,,,,,,,,,,,,,,,,,,,,,,,,,,,,,,,,5ac56ef9fa3b4e0001737190,5fb5f1525434b8016d33ffbb,2020-11-19_01h15.45.795,Colour_Similarity_Experiment,2020.1.2,Win32,60,5fb5945709dec70f2d595766,,,,,,,,,,,,,,,,,,,,FF,,,,,,,,7,1.130045,,,,,,,,,,,,,,,,,,,,,,,,,,,,4,48,103,1,0,0,response1disk,9,2,0,1,0,0,rectangle,2,0,1,0,0,1,1,"[260,151,153,292,168,216,221,274,21,110,59,265,208,51,71,159,8,252,291,46]",2,0,1,0,0,53,0,52,52,90,1,,,,,,,,,,,,,,,,,,,,,
,,,,,,,,,,,,,,,,,,,,,,,,,,,,,,,,,,,,,,,,,,,5ac56ef9fa3b4e0001737190,5fb5f1525434b8016d33ffbb,2020-11-19_01h15.45.795,Colour_Similarity_Experiment,2020.1.2,Win32,60,5fb5945709dec70f2d595766,,,,,,,,,,,,,,,,,,,,FF,,,,,,,,7,1.02199,,,,,,,,,,,,,,,,,,,,,,,,,,,,3,47,123,1,0,0,response1disk,8,7,5,1,0,0,rectangle,7,5,1,0,0,1,0,"[260,151,153,292,168,216,221,274,21,110,59,265,208,51,71,159,8,252,291,46]",7,5,1,0,0,54,0,53,53,44,1,,,,,,,,,,,,,,,,,,,,,
,,,,,,,,,,,,,,,,,,,,,,,,,,,,,,,,,,,,,,,,,,,5ac56ef9fa3b4e0001737190,5fb5f1525434b8016d33ffbb,2020-11-19_01h15.45.795,Colour_Similarity_Experiment,2020.1.2,Win32,60,5fb5945709dec70f2d595766,,,,,,,,,,,,,,,,,,,,FF,,,,,,,,7,0.77408,,,,,,,,,,,,,,,,,,,,,,,,,,,,9,48,106,1,0,0,response1disk,4,-3,-6,1,0,0,rectangle,-3,-6,1,0,0,1,2,"[260,151,153,292,168,216,221,274,21,110,59,265,208,51,71,159,8,252,291,46]",-3,-6,1,0,0,55,0,54,54,60,1,,,,,,,,,,,,,,,,,,,,,
,,,,,,,,,,,,,,,,,,,,,,,,,,,,,,,,,,,,,,,,,,,5ac56ef9fa3b4e0001737190,5fb5f1525434b8016d33ffbb,2020-11-19_01h15.45.795,Colour_Similarity_Experiment,2020.1.2,Win32,60,5fb5945709dec70f2d595766,,,,,,,,,,,,,,,,,,,,FF,,,,,,,,4,1.97368,,,,,,,,,,,,,,,,,,,,,,,,,,,,5,64,-108,1,0,0,response3disk,7,-5,-1,1,0,0,rectangle,-5,-1,1,0,0,1,2,"[260,151,153,292,168,216,221,274,21,110,59,265,208,51,71,159,8,252,291,46]",-5,-1,1,0,0,56,0,55,55,7,1,,,,,,,,,,,,,,,,,,,,,
,,,,,,,,,,,,,,,,,,,,,,,,,,,,,,,,,,,,,,,,,,,5ac56ef9fa3b4e0001737190,5fb5f1525434b8016d33ffbb,2020-11-19_01h15.45.795,Colour_Similarity_Experiment,2020.1.2,Win32,60,5fb5945709dec70f2d595766,,,,,,,,,,,,,,,,,,,,FF,,,,,,,,7,1.03899,,,,,,,,,,,,,,,,,,,,,,,,,,,,6,67,104,1,0,0,response1disk,2,-8,2,1,0,0,rectangle,-8,2,1,0,0,1,5,"[260,151,153,292,168,216,221,274,21,110,59,265,208,51,71,159,8,252,291,46]",-8,2,1,0,0,57,0,56,56,112,1,,,,,,,,,,,,,,,,,,,,,
,,,,,,,,,,,,,,,,,,,,,,,,,,,,,,,,,,,,,,,,,,,5ac56ef9fa3b4e0001737190,5fb5f1525434b8016d33ffbb,2020-11-19_01h15.45.795,Colour_Similarity_Experiment,2020.1.2,Win32,60,5fb5945709dec70f2d595766,,,,,,,,,,,,,,,,,,,,PF,,,,,,,,7,1.34247,,,,,,,,,,,,,,,,,,,,,,,,,,,,7,59,103,1,0,0,response1disk,1,-1,-1,1,0,0,rectangle,-1,-1,1,0,0,1,4,"[260,151,153,292,168,216,221,274,21,110,59,265,208,51,71,159,8,252,291,46]",-1,-1,1,0,0,58,0,57,57,53,1,,,,,,,,,,,,,,,,,,,,,
,,,,,,,,,,,,,,,,,,,,,,,,,,,,,,,,,,,,,,,,,,,5ac56ef9fa3b4e0001737190,5fb5f1525434b8016d33ffbb,2020-11-19_01h15.45.795,Colour_Similarity_Experiment,2020.1.2,Win32,60,5fb5945709dec70f2d595766,,,,,,,,,,,,,,,,,,,,PF,,,,,,,,7,1.180845,,,,,,,,,,,,,,,,,,,,,,,,,,,,2,59,98,1,0,0,response1disk,4,2,-6,1,0,0,rectangle,43,109,1,0,0,7,7,"[260,151,153,292,168,216,221,274,21,110,59,265,208,51,71,159,8,252,291,46]",-16,-3,1,0,0,59,0,58,58,127,1,response1disk_3,rectangle,,,,,,,,,,,,,,,,,,,
,,,,,,,,,,,,,,,,,,,,,,,,,,,,,,,,,,,,,,,,,,,5ac56ef9fa3b4e0001737190,5fb5f1525434b8016d33ffbb,2020-11-19_01h15.45.795,Colour_Similarity_Experiment,2020.1.2,Win32,60,5fb5945709dec70f2d595766,,,,,,,,,,,,,,,,,,,,PF,,,,,,,,5,3.47526,,,,,,,,,,,,,,,,,,,,,,,,,,,,9,124,-87,1,0,0,response3disk,2,9,-7,1,0,0,rectangle,9,-7,1,0,0,7,1,"[260,151,153,292,168,216,221,274,21,110,59,265,208,51,71,159,8,252,291,46]",9,-7,1,0,0,60,0,59,59,157,1,,,,,,,,,,,,,,,,,,,,,
,,,,,,,,,,,,,,,,,,,,,,,,,,,,,,,,,,,,,,,,,,,5ac56ef9fa3b4e0001737190,5fb5f1525434b8016d33ffbb,2020-11-19_01h15.45.795,Colour_Similarity_Experiment,2020.1.2,Win32,60,5fb5945709dec70f2d595766,,,,,,,,,,,,,,,,,,,,FF,,,,,,,,0,1.929595,,,,,,,,,,,,,,,,,,,,,,,,,,,,4,-58,121,1,0,0,response7disk,4,0,2,1,0,0,rectangle,0,2,1,0,0,7,1,"[260,151,153,292,168,216,221,274,21,110,59,265,208,51,71,159,8,252,291,46]",0,2,1,0,0,61,0,60,60,84,1,,,,,,,,,,,,,,,,,,,,,
,,,,,,,,,,,,,,,,,,,,,,,,,,,,,,,,,,,,,,,,,,,5ac56ef9fa3b4e0001737190,5fb5f1525434b8016d33ffbb,2020-11-19_01h15.45.795,Colour_Similarity_Experiment,2020.1.2,Win32,60,5fb5945709dec70f2d595766,,,,,,,,,,,,,,,,,,,,PF,,,,,,,,0,0.957895,,,,,,,,,,,,,,,,,,,,,,,,,,,,3,-48,104,1,0,0,response7disk,3,-7,0,1,0,0,rectangle,-7,0,1,0,0,7,7,"[260,151,153,292,168,216,221,274,21,110,59,265,208,51,71,159,8,252,291,46]",-7,0,1,0,0,62,0,61,61,4,1,,,,,,,,,,,,,,,,,,,,,
,,,,,,,,,,,,,,,,,,,,,,,,,,,,,,,,,,,,,,,,,,,5ac56ef9fa3b4e0001737190,5fb5f1525434b8016d33ffbb,2020-11-19_01h15.45.795,Colour_Similarity_Experiment,2020.1.2,Win32,60,5fb5945709dec70f2d595766,,,,,,,,,,,,,,,,,,,,PF,,,,,,,,3,1.24248,,,,,,,,,,,,,,,,,,,,,,,,,,,,1,-61,-103,1,0,0,response5disk,9,-18,-9,1,0,0,rectangle,-18,-9,1,0,0,7,5,"[260,151,153,292,168,216,221,274,21,110,59,265,208,51,71,159,8,252,291,46]",-18,-9,1,0,0,63,0,62,62,15,1,,,,,,,,,,,,,,,,,,,,,
,,,,,,,,,,,,,,,,,,,,,,,,,,,,,,,,,,,,,,,,,,,5ac56ef9fa3b4e0001737190,5fb5f1525434b8016d33ffbb,2020-11-19_01h15.45.795,Colour_Similarity_Experiment,2020.1.2,Win32,60,5fb5945709dec70f2d595766,,,,,,,,,,,,,,,,,,,,PF,,,,,,,,4,1.89341,,,,,,,,,,,,,,,,,,,,,,,,,,,,7,40,-119,1,0,0,response3disk,5,-12,-7,1,0,0,rectangle,-12,-7,1,0,0,7,7,"[260,151,153,292,168,216,221,274,21,110,59,265,208,51,71,159,8,252,291,46]",-12,-7,1,0,0,64,0,63,63,92,1,,,,,,,,,,,,,,,,,,,,,
,,,,,,,,,,,,,,,,,,,,,,,,,,,,,,,,,,,,,,,,,,,5ac56ef9fa3b4e0001737190,5fb5f1525434b8016d33ffbb,2020-11-19_01h15.45.795,Colour_Similarity_Experiment,2020.1.2,Win32,60,5fb5945709dec70f2d595766,,,,,,,,,,,,,,,,,,,,PF,,,,,,,,2,1.447545,,,,,,,,,,,,,,,,,,,,,,,,,,,,5,-86,-42,1,0,0,response5disk,4,19,1,1,0,0,rectangle,19,1,1,0,0,7,2,"[260,151,153,292,168,216,221,274,21,110,59,265,208,51,71,159,8,252,291,46]",19,1,1,0,0,65,0,64,64,54,1,,,,,,,,,,,,,,,,,,,,,
,,,,,,,,,,,,,,,,,,,,,,,,,,,,,,,,,,,,,,,,,,,5ac56ef9fa3b4e0001737190,5fb5f1525434b8016d33ffbb,2020-11-19_01h15.45.795,Colour_Similarity_Experiment,2020.1.2,Win32,60,5fb5945709dec70f2d595766,,,,,,,,,,,,,,,,,,,,PF,,,,,,,,2,1.416475,,,,,,,,,,,,,,,,,,,,,,,,,,,,3,-96,-53,1,0,0,response5disk,4,-3,5,1,0,0,rectangle,-3,5,1,0,0,7,3,"[260,151,153,292,168,216,221,274,21,110,59,265,208,51,71,159,8,252,291,46]",-3,5,1,0,0,66,0,65,65,30,1,,,,,,,,,,,,,,,,,,,,,
,,,,,,,,,,,,,,,,,,,,,,,,,,,,,,,,,,,,,,,,,,,5ac56ef9fa3b4e0001737190,5fb5f1525434b8016d33ffbb,2020-11-19_01h15.45.795,Colour_Similarity_Experiment,2020.1.2,Win32,60,5fb5945709dec70f2d595766,,,,,,,,,,,,,,,,,,,,PF,,,,,,,,5,1.54907,,,,,,,,,,,,,,,,,,,,,,,,,,,,9,100,-60,1,0,0,response3disk,5,-8,0,1,0,0,rectangle,-8,0,1,0,0,7,2,"[260,151,153,292,168,216,221,274,21,110,59,265,208,51,71,159,8,252,291,46]",-8,0,1,0,0,67,0,66,66,134,1,,,,,,,,,,,,,,,,,,,,,
,,,,,,,,,,,,,,,,,,,,,,,,,,,,,,,,,,,,,,,,,,,5ac56ef9fa3b4e0001737190,5fb5f1525434b8016d33ffbb,2020-11-19_01h15.45.795,Colour_Similarity_Experiment,2020.1.2,Win32,60,5fb5945709dec70f2d595766,,,,,,,,,,,,,,,,,,,,PF,,,,,,,,0,1.148075,,,,,,,,,,,,,,,,,,,,,,,,,,,,2,-36,105,1,0,0,response7disk,2,9,-12,1,0,0,rectangle,9,-12,1,0,0,7,0,"[260,151,153,292,168,216,221,274,21,110,59,265,208,51,71,159,8,252,291,46]",9,-12,1,0,0,68,0,67,67,14,1,,,,,,,,,,,,,,,,,,,,,
,,,,,,,,,,,,,,,,,,,,,,,,,,,,,,,,,,,,,,,,,,,5ac56ef9fa3b4e0001737190,5fb5f1525434b8016d33ffbb,2020-11-19_01h15.45.795,Colour_Similarity_Experiment,2020.1.2,Win32,60,5fb5945709dec70f2d595766,,,,,,,,,,,,,,,,,,,,FF,,,,,,,,4,2.22707,,,,,,,,,,,,,,,,,,,,,,,,,,,,4,62,-128,1,0,0,response3disk,6,1,-13,1,0,0,rectangle,1,-13,1,0,0,7,3,"[260,151,153,292,168,216,221,274,21,110,59,265,208,51,71,159,8,252,291,46]",1,-13,1,0,0,69,0,68,68,122,1,,,,,,,,,,,,,,,,,,,,,
,,,,,,,,,,,,,,,,,,,,,,,,,,,,,,,,,,,,,,,,,,,5ac56ef9fa3b4e0001737190,5fb5f1525434b8016d33ffbb,2020-11-19_01h15.45.795,Colour_Similarity_Experiment,2020.1.2,Win32,60,5fb5945709dec70f2d595766,,,,,,,,,,,,,,,,,,,,FF,,,,,,,,5,2.33018,,,,,,,,,,,,,,,,,,,,,,,,,,,,5,89,-64,1,0,0,response3disk,9,-3,2,1,0,0,rectangle,-3,2,1,0,0,7,1,"[260,151,153,292,168,216,221,274,21,110,59,265,208,51,71,159,8,252,291,46]",-3,2,1,0,0,70,0,69,69,61,1,,,,,,,,,,,,,,,,,,,,,
,,,,,,,,,,,,,,,,,,,,,,,,,,,,,,,,,,,,,,,,,,,5ac56ef9fa3b4e0001737190,5fb5f1525434b8016d33ffbb,2020-11-19_01h15.45.795,Colour_Similarity_Experiment,2020.1.2,Win32,60,5fb5945709dec70f2d595766,,,,,,,,,,,,,,,,,,,,PF,,,,,,,,5,1.532035,,,,,,,,,,,,,,,,,,,,,,,,,,,,4,138,-52,1,0,0,response3disk,9,-2,-10,1,0,0,rectangle,46,104,1,0,0,7,7,"[260,151,153,292,168,216,221,274,21,110,59,265,208,51,71,159,8,252,291,46]",0,-7,1,0,0,71,0,70,70,75,1,response1disk_3,rectangle,,,,,,,,,,,,,,,,,,,
,,,,,,,,,,,,,,,,,,,,,,,,,,,,,,,,,,,,,,,,,,,5ac56ef9fa3b4e0001737190,5fb5f1525434b8016d33ffbb,2020-11-19_01h15.45.795,Colour_Similarity_Experiment,2020.1.2,Win32,60,5fb5945709dec70f2d595766,,,,,,,,,,,,,,,,,,,,PF,,,,,,,,7,3.353695,,,,,,,,,,,,,,,,,,,,,,,,,,,,5,62,106,1,0,0,response1disk,8,6,7,1,0,0,rectangle,6,7,1,0,0,7,5,"[260,151,153,292,168,216,221,274,21,110,59,265,208,51,71,159,8,252,291,46]",6,7,1,0,0,72,0,71,71,149,1,,,,,,,,,,,,,,,,,,,,,
,,,,,,,,,,,,,,,,,,,,,,,,,,,,,,,,,,,,,,,,,,,5ac56ef9fa3b4e0001737190,5fb5f1525434b8016d33ffbb,2020-11-19_01h15.45.795,Colour_Similarity_Experiment,2020.1.2,Win32,60,5fb5945709dec70f2d595766,,,,,,,,,,,,,,,,,,,,PF,,,,,,,,7,1.0981,,,,,,,,,,,,,,,,,,,,,,,,,,,,9,53,90,1,0,0,response1disk,3,-16,-16,1,0,0,rectangle,-16,-16,1,0,0,7,1,"[260,151,153,292,168,216,221,274,21,110,59,265,208,51,71,159,8,252,291,46]",-16,-16,1,0,0,73,0,72,72,119,1,,,,,,,,,,,,,,,,,,,,,
,,,,,,,,,,,,,,,,,,,,,,,,,,,,,,,,,,,,,,,,,,,5ac56ef9fa3b4e0001737190,5fb5f1525434b8016d33ffbb,2020-11-19_01h15.45.795,Colour_Similarity_Experiment,2020.1.2,Win32,60,5fb5945709dec70f2d595766,,,,,,,,,,,,,,,,,,,,PF,,,,,,,,7,0.875545,,,,,,,,,,,,,,,,,,,,,,,,,,,,7,44,105,1,0,0,response1disk,2,2,4,1,0,0,rectangle,2,4,1,0,0,7,5,"[260,151,153,292,168,216,221,274,21,110,59,265,208,51,71,159,8,252,291,46]",2,4,1,0,0,74,0,73,73,32,1,,,,,,,,,,,,,,,,,,,,,
,,,,,,,,,,,,,,,,,,,,,,,,,,,,,,,,,,,,,,,,,,,5ac56ef9fa3b4e0001737190,5fb5f1525434b8016d33ffbb,2020-11-19_01h15.45.795,Colour_Similarity_Experiment,2020.1.2,Win32,60,5fb5945709dec70f2d595766,,,,,,,,,,,,,,,,,,,,FF,,,,,,,,7,0.909035,,,,,,,,,,,,,,,,,,,,,,,,,,,,1,68,134,1,0,0,response1disk,5,-10,-11,1,0,0,rectangle,-10,-11,1,0,0,7,4,"[260,151,153,292,168,216,221,274,21,110,59,265,208,51,71,159,8,252,291,46]",-10,-11,1,0,0,75,0,74,74,82,1,,,,,,,,,,,,,,,,,,,,,
,,,,,,,,,,,,,,,,,,,,,,,,,,,,,,,,,,,,,,,,,,,5ac56ef9fa3b4e0001737190,5fb5f1525434b8016d33ffbb,2020-11-19_01h15.45.795,Colour_Similarity_Experiment,2020.1.2,Win32,60,5fb5945709dec70f2d595766,,,,,,,,,,,,,,,,,,,,PF,,,,,,,,7,1.230185,,,,,,,,,,,,,,,,,,,,,,,,,,,,2,74,105,1,0,0,response1disk,6,4,-5,1,0,0,rectangle,4,-5,1,0,0,7,4,"[260,151,153,292,168,216,221,274,21,110,59,265,208,51,71,159,8,252,291,46]",4,-5,1,0,0,76,0,75,75,113,1,,,,,,,,,,,,,,,,,,,,,
,,,,,,,,,,,,,,,,,,,,,,,,,,,,,,,,,,,,,,,,,,,5ac56ef9fa3b4e0001737190,5fb5f1525434b8016d33ffbb,2020-11-19_01h15.45.795,Colour_Similarity_Experiment,2020.1.2,Win32,60,5fb5945709dec70f2d595766,,,,,,,,,,,,,,,,,,,,FF,,,,,,,,3,2.721025,,,,,,,,,,,,,,,,,,,,,,,,,,,,3,-23,-134,1,0,0,response5disk,5,7,-11,1,0,0,rectangle,7,-11,1,0,0,7,3,"[260,151,153,292,168,216,221,274,21,110,59,265,208,51,71,159,8,252,291,46]",7,-11,1,0,0,77,0,76,76,101,1,,,,,,,,,,,,,,,,,,,,,
,,,,,,,,,,,,,,,,,,,,,,,,,,,,,,,,,,,,,,,,,,,5ac56ef9fa3b4e0001737190,5fb5f1525434b8016d33ffbb,2020-11-19_01h15.45.795,Colour_Similarity_Experiment,2020.1.2,Win32,60,5fb5945709dec70f2d595766,,,,,,,,,,,,,,,,,,,,FF,,,,,,,,7,1.26928,,,,,,,,,,,,,,,,,,,,,,,,,,,,4,67,97,1,0,0,response1disk,2,12,-6,1,0,0,rectangle,12,-6,1,0,0,7,3,"[260,151,153,292,168,216,221,274,21,110,59,265,208,51,71,159,8,252,291,46]",12,-6,1,0,0,78,0,77,77,13,1,,,,,,,,,,,,,,,,,,,,,
,,,,,,,,,,,,,,,,,,,,,,,,,,,,,,,,,,,,,,,,,,,5ac56ef9fa3b4e0001737190,5fb5f1525434b8016d33ffbb,2020-11-19_01h15.45.795,Colour_Similarity_Experiment,2020.1.2,Win32,60,5fb5945709dec70f2d595766,,,,,,,,,,,,,,,,,,,,FF,,,,,,,,4,2.018935,,,,,,,,,,,,,,,,,,,,,,,,,,,,6,42,-139,1,0,0,response3disk,5,8,-8,1,0,0,rectangle,8,-8,1,0,0,7,2,"[260,151,153,292,168,216,221,274,21,110,59,265,208,51,71,159,8,252,291,46]",8,-8,1,0,0,79,0,78,78,126,1,,,,,,,,,,,,,,,,,,,,,
,,,,,,,,,,,,,,,,,,,,,,,,,,,,,,,,,,,,,,,,,,,5ac56ef9fa3b4e0001737190,5fb5f1525434b8016d33ffbb,2020-11-19_01h15.45.795,Colour_Similarity_Experiment,2020.1.2,Win32,60,5fb5945709dec70f2d595766,,,,,,,,,,,,,,,,,,,,FF,,,,,,,,4,1.58577,,,,,,,,,,,,,,,,,,,,,,,,,,,,8,55,-99,1,0,0,response3disk,6,-9,4,1,0,0,rectangle,-9,4,1,0,0,7,1,"[260,151,153,292,168,216,221,274,21,110,59,265,208,51,71,159,8,252,291,46]",-9,4,1,0,0,80,0,79,79,37,1,,,,,,,,,,,,,,,,,,,,,
,,,,,,,,,,,,,,,,,,,,,,,,,,,,,,,,,,,,,,,,,,,5ac56ef9fa3b4e0001737190,5fb5f1525434b8016d33ffbb,2020-11-19_01h15.45.795,Colour_Similarity_Experiment,2020.1.2,Win32,60,5fb5945709dec70f2d595766,,,,,,,,,,,,,,,,,,,,FF,,,,,,,,7,1.086245,,,,,,,,,,,,,,,,,,,,,,,,,,,,8,58,118,1,0,0,response1disk,2,-5,-10,1,0,0,rectangle,-5,-10,1,0,0,7,1,"[260,151,153,292,168,216,221,274,21,110,59,265,208,51,71,159,8,252,291,46]",-5,-10,1,0,0,81,0,80,80,22,1,,,,,,,,,,,,,,,,,,,,,
,,,,,,,,,,,,,,,,,,,,,,,,,,,,,,,,,,,,,,,,,,,5ac56ef9fa3b4e0001737190,5fb5f1525434b8016d33ffbb,2020-11-19_01h15.45.795,Colour_Similarity_Experiment,2020.1.2,Win32,60,5fb5945709dec70f2d595766,,,,,,,,,,,,,,,,,,,,PF,,,,,,,,6,2.580225,,,,,,,,,,,,,,,,,,,,,,,,,,,,2,126,34,1,0,0,response1disk,3,-2,-3,1,0,0,rectangle,-2,-3,1,0,0,7,5,"[260,151,153,292,168,216,221,274,21,110,59,265,208,51,71,159,8,252,291,46]",-2,-3,1,0,0,82,0,81,81,69,1,,,,,,,,,,,,,,,,,,,,,
,,,,,,,,,,,,,,,,,,,,,,,,,,,,,,,,,,,,,,,,,,,5ac56ef9fa3b4e0001737190,5fb5f1525434b8016d33ffbb,2020-11-19_01h15.45.795,Colour_Similarity_Experiment,2020.1.2,Win32,60,5fb5945709dec70f2d595766,,,,,,,,,,,,,,,,,,,,PF,,,,,,,,5,3.47029,,,,,,,,,,,,,,,,,,,,,,,,,,,,4,128,-46,1,0,0,response3disk,7,0,0,1,0,0,rectangle,0,0,1,0,0,7,3,"[260,151,153,292,168,216,221,274,21,110,59,265,208,51,71,159,8,252,291,46]",0,0,1,0,0,83,0,82,82,38,1,,,,,,,,,,,,,,,,,,,,,
,,,,,,,,,,,,,,,,,,,,,,,,,,,,,,,,,,,,,,,,,,,5ac56ef9fa3b4e0001737190,5fb5f1525434b8016d33ffbb,2020-11-19_01h15.45.795,Colour_Similarity_Experiment,2020.1.2,Win32,60,5fb5945709dec70f2d595766,,,,,,,,,,,,,,,,,,,,FF,,,,,,,,5,1.473145,,,,,,,,,,,,,,,,,,,,,,,,,,,,7,84,-47,1,0,0,response3disk,5,3,0,1,0,0,rectangle,3,0,1,0,0,7,7,"[260,151,153,292,168,216,221,274,21,110,59,265,208,51,71,159,8,252,291,46]",3,0,1,0,0,84,0,83,83,156,1,,,,,,,,,,,,,,,,,,,,,
,,,,,,,,,,,,,,,,,,,,,,,,,,,,,,,,,,,,,,,,,,,5ac56ef9fa3b4e0001737190,5fb5f1525434b8016d33ffbb,2020-11-19_01h15.45.795,Colour_Similarity_Experiment,2020.1.2,Win32,60,5fb5945709dec70f2d595766,,,,,,,,,,,,,,,,,,,,PF,,,,,,,,7,1.72365,,,,,,,,,,,,,,,,,,,,,,,,,,,,3,39,61,1,0,0,response1disk,2,12,0,1,0,0,rectangle,12,0,1,0,0,7,5,"[260,151,153,292,168,216,221,274,21,110,59,265,208,51,71,159,8,252,291,46]",12,0,1,0,0,85,0,84,84,36,1,,,,,,,,,,,,,,,,,,,,,
,,,,,,,,,,,,,,,,,,,,,,,,,,,,,,,,,,,,,,,,,,,5ac56ef9fa3b4e0001737190,5fb5f1525434b8016d33ffbb,2020-11-19_01h15.45.795,Colour_Similarity_Experiment,2020.1.2,Win32,60,5fb5945709dec70f2d595766,,,,,,,,,,,,,,,,,,,,PF,,,,,,,,7,1.896035,,,,,,,,,,,,,,,,,,,,,,,,,,,,2,57,112,1,0,0,response1disk,8,6,6,1,0,0,rectangle,6,6,1,0,0,7,4,"[260,151,153,292,168,216,221,274,21,110,59,265,208,51,71,159,8,252,291,46]",6,6,1,0,0,86,0,85,85,52,1,,,,,,,,,,,,,,,,,,,,,
,,,,,,,,,,,,,,,,,,,,,,,,,,,,,,,,,,,,,,,,,,,5ac56ef9fa3b4e0001737190,5fb5f1525434b8016d33ffbb,2020-11-19_01h15.45.795,Colour_Similarity_Experiment,2020.1.2,Win32,60,5fb5945709dec70f2d595766,,,,,,,,,,,,,,,,,,,,FF,,,,,,,,3,2.087635,,,,,,,,,,,,,,,,,,,,,,,,,,,,6,-69,-123,1,0,0,response5disk,7,-10,7,1,0,0,rectangle,-10,7,1,0,0,7,7,"[260,151,153,292,168,216,221,274,21,110,59,265,208,51,71,159,8,252,291,46]",-10,7,1,0,0,87,0,86,86,18,1,,,,,,,,,,,,,,,,,,,,,
,,,,,,,,,,,,,,,,,,,,,,,,,,,,,,,,,,,,,,,,,,,5ac56ef9fa3b4e0001737190,5fb5f1525434b8016d33ffbb,2020-11-19_01h15.45.795,Colour_Similarity_Experiment,2020.1.2,Win32,60,5fb5945709dec70f2d595766,,,,,,,,,,,,,,,,,,,,PF,,,,,,,,7,1.3444,,,,,,,,,,,,,,,,,,,,,,,,,,,,1,39,91,1,0,0,response1disk,5,6,-4,1,0,0,rectangle,6,-4,1,0,0,7,4,"[260,151,153,292,168,216,221,274,21,110,59,265,208,51,71,159,8,252,291,46]",6,-4,1,0,0,88,0,87,87,28,1,,,,,,,,,,,,,,,,,,,,,
,,,,,,,,,,,,,,,,,,,,,,,,,,,,,,,,,,,,,,,,,,,5ac56ef9fa3b4e0001737190,5fb5f1525434b8016d33ffbb,2020-11-19_01h15.45.795,Colour_Similarity_Experiment,2020.1.2,Win32,60,5fb5945709dec70f2d595766,,,,,,,,,,,,,,,,,,,,FF,,,,,,,,2,1.31883,,,,,,,,,,,,,,,,,,,,,,,,,,,,1,-79,-44,1,0,0,response5disk,2,-24,-8,1,0,0,rectangle,-24,-8,1,0,0,7,3,"[260,151,153,292,168,216,221,274,21,110,59,265,208,51,71,159,8,252,291,46]",-24,-8,1,0,0,89,0,88,88,2,1,,,,,,,,,,,,,,,,,,,,,
,,,,,,,,,,,,,,,,,,,,,,,,,,,,,,,,,,,,,,,,,,,5ac56ef9fa3b4e0001737190,5fb5f1525434b8016d33ffbb,2020-11-19_01h15.45.795,Colour_Similarity_Experiment,2020.1.2,Win32,60,5fb5945709dec70f2d595766,,,,,,,,,,,,,,,,,,,,PF,,,,,,,,7,1.5628,,,,,,,,,,,,,,,,,,,,,,,,,,,,3,36,90,1,0,0,response1disk,7,-11,-3,1,0,0,rectangle,-11,-3,1,0,0,7,7,"[260,151,153,292,168,216,221,274,21,110,59,265,208,51,71,159,8,252,291,46]",-11,-3,1,0,0,90,0,89,89,41,1,,,,,,,,,,,,,,,,,,,,,
,,,,,,,,,,,,,,,,,,,,,,,,,,,,,,,,,,,,,,,,,,,5ac56ef9fa3b4e0001737190,5fb5f1525434b8016d33ffbb,2020-11-19_01h15.45.795,Colour_Similarity_Experiment,2020.1.2,Win32,60,5fb5945709dec70f2d595766,,,,,,,,,,,,,,,,,,,,PF,,,,,,,,2,1.552245,,,,,,,,,,,,,,,,,,,,,,,,,,,,4,-107,-56,1,0,0,response5disk,3,-17,-11,1,0,0,rectangle,-17,-11,1,0,0,7,0,"[260,151,153,292,168,216,221,274,21,110,59,265,208,51,71,159,8,252,291,46]",-17,-11,1,0,0,91,0,90,90,89,1,,,,,,,,,,,,,,,,,,,,,
,,,,,,,,,,,,,,,,,,,,,,,,,,,,,,,,,,,,,,,,,,,5ac56ef9fa3b4e0001737190,5fb5f1525434b8016d33ffbb,2020-11-19_01h15.45.795,Colour_Similarity_Experiment,2020.1.2,Win32,60,5fb5945709dec70f2d595766,,,,,,,,,,,,,,,,,,,,FF,,,,,,,,7,1.128385,,,,,,,,,,,,,,,,,,,,,,,,,,,,3,45,78,1,0,0,response1disk,7,16,-2,1,0,0,rectangle,16,-2,1,0,0,7,2,"[260,151,153,292,168,216,221,274,21,110,59,265,208,51,71,159,8,252,291,46]",16,-2,1,0,0,92,0,91,91,118,1,,,,,,,,,,,,,,,,,,,,,
,,,,,,,,,,,,,,,,,,,,,,,,,,,,,,,,,,,,,,,,,,,5ac56ef9fa3b4e0001737190,5fb5f1525434b8016d33ffbb,2020-11-19_01h15.45.795,Colour_Similarity_Experiment,2020.1.2,Win32,60,5fb5945709dec70f2d595766,,,,,,,,,,,,,,,,,,,,PF,,,,,,,,7,1.27596,,,,,,,,,,,,,,,,,,,,,,,,,,,,2,29,101,1,0,0,response1disk,7,-13,-7,1,0,0,rectangle,-13,-7,1,0,0,7,4,"[260,151,153,292,168,216,221,274,21,110,59,265,208,51,71,159,8,252,291,46]",-13,-7,1,0,0,93,0,92,92,107,1,,,,,,,,,,,,,,,,,,,,,
,,,,,,,,,,,,,,,,,,,,,,,,,,,,,,,,,,,,,,,,,,,5ac56ef9fa3b4e0001737190,5fb5f1525434b8016d33ffbb,2020-11-19_01h15.45.795,Colour_Similarity_Experiment,2020.1.2,Win32,60,5fb5945709dec70f2d595766,,,,,,,,,,,,,,,,,,,,FF,,,,,,,,0,1.16574,,,,,,,,,,,,,,,,,,,,,,,,,,,,3,-66,112,1,0,0,response7disk,3,3,0,1,0,0,rectangle,3,0,1,0,0,7,1,"[260,151,153,292,168,216,221,274,21,110,59,265,208,51,71,159,8,252,291,46]",3,0,1,0,0,94,0,93,93,68,1,,,,,,,,,,,,,,,,,,,,,
,,,,,,,,,,,,,,,,,,,,,,,,,,,,,,,,,,,,,,,,,,,5ac56ef9fa3b4e0001737190,5fb5f1525434b8016d33ffbb,2020-11-19_01h15.45.795,Colour_Similarity_Experiment,2020.1.2,Win32,60,5fb5945709dec70f2d595766,,,,,,,,,,,,,,,,,,,,PF,,,,,,,,0,1.07603,,,,,,,,,,,,,,,,,,,,,,,,,,,,7,-42,99,1,0,0,response7disk,7,-8,7,1,0,0,rectangle,-8,7,1,0,0,7,5,"[260,151,153,292,168,216,221,274,21,110,59,265,208,51,71,159,8,252,291,46]",-8,7,1,0,0,95,0,94,94,51,1,,,,,,,,,,,,,,,,,,,,,
,,,,,,,,,,,,,,,,,,,,,,,,,,,,,,,,,,,,,,,,,,,5ac56ef9fa3b4e0001737190,5fb5f1525434b8016d33ffbb,2020-11-19_01h15.45.795,Colour_Similarity_Experiment,2020.1.2,Win32,60,5fb5945709dec70f2d595766,,,,,,,,,,,,,,,,,,,,PF,,,,,,,,1,1.92632,,,,,,,,,,,,,,,,,,,,,,,,,,,,9,-123,32,1,0,0,response7disk,8,-2,-6,1,0,0,rectangle,-2,-6,1,0,0,7,4,"[260,151,153,292,168,216,221,274,21,110,59,265,208,51,71,159,8,252,291,46]",-2,-6,1,0,0,96,0,95,95,67,1,,,,,,,,,,,,,,,,,,,,,
,,,,,,,,,,,,,,,,,,,,,,,,,,,,,,,,,,,,,,,,,,,5ac56ef9fa3b4e0001737190,5fb5f1525434b8016d33ffbb,2020-11-19_01h15.45.795,Colour_Similarity_Experiment,2020.1.2,Win32,60,5fb5945709dec70f2d595766,,,,,,,,,,,,,,,,,,,,PF,,,,,,,,4,1.585805,,,,,,,,,,,,,,,,,,,,,,,,,,,,6,67,-97,1,0,0,response3disk,3,-4,7,1,0,0,rectangle,-4,7,1,0,0,7,7,"[260,151,153,292,168,216,221,274,21,110,59,265,208,51,71,159,8,252,291,46]",-4,7,1,0,0,97,0,96,96,26,1,,,,,,,,,,,,,,,,,,,,,
,,,,,,,,,,,,,,,,,,,,,,,,,,,,,,,,,,,,,,,,,,,5ac56ef9fa3b4e0001737190,5fb5f1525434b8016d33ffbb,2020-11-19_01h15.45.795,Colour_Similarity_Experiment,2020.1.2,Win32,60,5fb5945709dec70f2d595766,,,,,,,,,,,,,,,,,,,,FF,,,,,,,,7,1.37789,,,,,,,,,,,,,,,,,,,,,,,,,,,,2,57,89,1,0,0,response1disk,6,-1,0,1,0,0,rectangle,-1,0,1,0,0,7,1,"[260,151,153,292,168,216,221,274,21,110,59,265,208,51,71,159,8,252,291,46]",-1,0,1,0,0,98,0,97,97,40,1,,,,,,,,,,,,,,,,,,,,,
,,,,,,,,,,,,,,,,,,,,,,,,,,,,,,,,,,,,,,,,,,,5ac56ef9fa3b4e0001737190,5fb5f1525434b8016d33ffbb,2020-11-19_01h15.45.795,Colour_Similarity_Experiment,2020.1.2,Win32,60,5fb5945709dec70f2d595766,,,,,,,,,,,,,,,,,,,,FF,,,,,,,,2,1.46598,,,,,,,,,,,,,,,,,,,,,,,,,,,,4,-67,-52,1,0,0,response5disk,3,-18,-4,1,0,0,rectangle,-18,-4,1,0,0,7,1,"[260,151,153,292,168,216,221,274,21,110,59,265,208,51,71,159,8,252,291,46]",-18,-4,1,0,0,99,0,98,98,77,1,,,,,,,,,,,,,,,,,,,,,
,,,,,,,,,,,,,,,,,,,,,,,,,,,,,,,,,,,,,,,,,,,5ac56ef9fa3b4e0001737190,5fb5f1525434b8016d33ffbb,2020-11-19_01h15.45.795,Colour_Similarity_Experiment,2020.1.2,Win32,60,5fb5945709dec70f2d595766,,,,,,,,,,,,,,,,,,,,FF,,,,,,,,0,1.06353,,,,,,,,,,,,,,,,,,,,,,,,,,,,5,-72,107,1,0,0,response7disk,5,-6,1,1,0,0,rectangle,-6,1,1,0,0,7,2,"[260,151,153,292,168,216,221,274,21,110,59,265,208,51,71,159,8,252,291,46]",-6,1,1,0,0,100,0,99,99,19,1,,,,,,,,,,,,,,,,,,,,,
,,,,,,,,,,,,,,,,,,,,,,,,,,,,,,,,,,,,,,,,,,,5ac56ef9fa3b4e0001737190,5fb5f1525434b8016d33ffbb,2020-11-19_01h15.45.795,Colour_Similarity_Experiment,2020.1.2,Win32,60,5fb5945709dec70f2d595766,,,,,,,,,,,,,,,,,,,,PF,,,,,,,,7,1.461275,,,,,,,,,,,,,,,,,,,,,,,,,,,,6,59,90,1,0,0,response1disk,1,-4,0,1,0,0,rectangle,-4,0,1,0,0,7,3,"[260,151,153,292,168,216,221,274,21,110,59,265,208,51,71,159,8,252,291,46]",-4,0,1,0,0,101,0,100,100,46,1,,,,,,,,,,,,,,,,,,,,,
,,,,,,,,,,,,,,,,,,,,,,,,,,,,,,,,,,,,,,,,,,,5ac56ef9fa3b4e0001737190,5fb5f1525434b8016d33ffbb,2020-11-19_01h15.45.795,Colour_Similarity_Experiment,2020.1.2,Win32,60,5fb5945709dec70f2d595766,,,,,,,,,,,,,,,,,,,,FF,,,,,,,,2,1.564665,,,,,,,,,,,,,,,,,,,,,,,,,,,,5,-90,-49,1,0,0,response5disk,4,10,-3,1,0,0,rectangle,10,-3,1,0,0,7,4,"[260,151,153,292,168,216,221,274,21,110,59,265,208,51,71,159,8,252,291,46]",10,-3,1,0,0,102,0,101,101,8,1,,,,,,,,,,,,,,,,,,,,,
,,,,,,,,,,,,,,,,,,,,,,,,,,,,,,,,,,,,,,,,,,,5ac56ef9fa3b4e0001737190,5fb5f1525434b8016d33ffbb,2020-11-19_01h15.45.795,Colour_Similarity_Experiment,2020.1.2,Win32,60,5fb5945709dec70f2d595766,,,,,,,,,,,,,,,,,,,,PF,,,,,,,,2,1.22361,,,,,,,,,,,,,,,,,,,,,,,,,,,,8,-70,-41,1,0,0,response5disk,9,-10,-9,1,0,0,rectangle,-10,-9,1,0,0,7,4,"[260,151,153,292,168,216,221,274,21,110,59,265,208,51,71,159,8,252,291,46]",-10,-9,1,0,0,103,0,102,102,42,1,,,,,,,,,,,,,,,,,,,,,
,,,,,,,,,,,,,,,,,,,,,,,,,,,,,,,,,,,,,,,,,,,5ac56ef9fa3b4e0001737190,5fb5f1525434b8016d33ffbb,2020-11-19_01h15.45.795,Colour_Similarity_Experiment,2020.1.2,Win32,60,5fb5945709dec70f2d595766,,,,,,,,,,,,,,,,,,,,FF,,,,,,,,4,1.30546,,,,,,,,,,,,,,,,,,,,,,,,,,,,7,38,-80,1,0,0,response3disk,4,-7,-3,1,0,0,rectangle,-7,-3,1,0,0,7,3,"[260,151,153,292,168,216,221,274,21,110,59,265,208,51,71,159,8,252,291,46]",-7,-3,1,0,0,104,0,103,103,158,1,,,,,,,,,,,,,,,,,,,,,
,,,,,,,,,,,,,,,,,,,,,,,,,,,,,,,,,,,,,,,,,,,5ac56ef9fa3b4e0001737190,5fb5f1525434b8016d33ffbb,2020-11-19_01h15.45.795,Colour_Similarity_Experiment,2020.1.2,Win32,60,5fb5945709dec70f2d595766,,,,,,,,,,,,,,,,,,,,FF,,,,,,,,4,1.67208,,,,,,,,,,,,,,,,,,,,,,,,,,,,1,59,-101,1,0,0,response3disk,8,10,-5,1,0,0,rectangle,10,-5,1,0,0,7,2,"[260,151,153,292,168,216,221,274,21,110,59,265,208,51,71,159,8,252,291,46]",10,-5,1,0,0,105,0,104,104,27,1,,,,,,,,,,,,,,,,,,,,,
,,,,,,,,,,,,,,,,,,,,,,,,,,,,,,,,,,,,,,,,,,,5ac56ef9fa3b4e0001737190,5fb5f1525434b8016d33ffbb,2020-11-19_01h15.45.795,Colour_Similarity_Experiment,2020.1.2,Win32,60,5fb5945709dec70f2d595766,,,,,,,,,,,,,,,,,,,,FF,,,,,,,,5,1.504415,,,,,,,,,,,,,,,,,,,,,,,,,,,,3,73,-41,1,0,0,response3disk,9,9,2,1,0,0,rectangle,9,2,1,0,0,7,5,"[260,151,153,292,168,216,221,274,21,110,59,265,208,51,71,159,8,252,291,46]",9,2,1,0,0,106,0,105,105,143,1,,,,,,,,,,,,,,,,,,,,,
,,,,,,,,,,,,,,,,,,,,,,,,,,,,,,,,,,,,,,,,,,,5ac56ef9fa3b4e0001737190,5fb5f1525434b8016d33ffbb,2020-11-19_01h15.45.795,Colour_Similarity_Experiment,2020.1.2,Win32,60,5fb5945709dec70f2d595766,,,,,,,,,,,,,,,,,,,,PF,,,,,,,,7,1.26231,,,,,,,,,,,,,,,,,,,,,,,,,,,,5,62,107,1,0,0,response1disk,1,3,9,1,0,0,rectangle,3,9,1,0,0,7,7,"[260,151,153,292,168,216,221,274,21,110,59,265,208,51,71,159,8,252,291,46]",3,9,1,0,0,107,0,106,106,159,1,,,,,,,,,,,,,,,,,,,,,
,,,,,,,,,,,,,,,,,,,,,,,,,,,,,,,,,,,,,,,,,,,5ac56ef9fa3b4e0001737190,5fb5f1525434b8016d33ffbb,2020-11-19_01h15.45.795,Colour_Similarity_Experiment,2020.1.2,Win32,60,5fb5945709dec70f2d595766,,,,,,,,,,,,,,,,,,,,PF,,,,,,,,7,1.05291,,,,,,,,,,,,,,,,,,,,,,,,,,,,1,58,92,1,0,0,response1disk,4,2,5,1,0,0,rectangle,2,5,1,0,0,7,5,"[260,151,153,292,168,216,221,274,21,110,59,265,208,51,71,159,8,252,291,46]",2,5,1,0,0,108,0,107,107,139,1,,,,,,,,,,,,,,,,,,,,,
,,,,,,,,,,,,,,,,,,,,,,,,,,,,,,,,,,,,,,,,,,,5ac56ef9fa3b4e0001737190,5fb5f1525434b8016d33ffbb,2020-11-19_01h15.45.795,Colour_Similarity_Experiment,2020.1.2,Win32,60,5fb5945709dec70f2d595766,,,,,,,,,,,,,,,,,,,,PF,,,,,,,,4,1.85789,,,,,,,,,,,,,,,,,,,,,,,,,,,,1,59,-130,1,0,0,response3disk,8,6,-7,1,0,0,rectangle,6,-7,1,0,0,7,6,"[260,151,153,292,168,216,221,274,21,110,59,265,208,51,71,159,8,252,291,46]",6,-7,1,0,0,109,0,108,108,65,1,,,,,,,,,,,,,,,,,,,,,
,,,,,,,,,,,,,,,,,,,,,,,,,,,,,,,,,,,,,,,,,,,5ac56ef9fa3b4e0001737190,5fb5f1525434b8016d33ffbb,2020-11-19_01h15.45.795,Colour_Similarity_Experiment,2020.1.2,Win32,60,5fb5945709dec70f2d595766,,,,,,,,,,,,,,,,,,,,FF,,,,,,,,0,0.989585,,,,,,,,,,,,,,,,,,,,,,,,,,,,6,-31,92,1,0,0,response7disk,6,6,1,1,0,0,rectangle,110,46,1,0,0,6,6,"[260,151,153,292,168,216,221,274,21,110,59,265,208,51,71,159,8,252,291,46]",17,-9,1,0,0,110,0,109,109,91,1,response1disk_3,rectangle,,,,,,,,,,,,,,,,,,,
,,,,,,,,,,,,,,,,,,,,,,,,,,,,,,,,,,,,,,,,,,,5ac56ef9fa3b4e0001737190,5fb5f1525434b8016d33ffbb,2020-11-19_01h15.45.795,Colour_Similarity_Experiment,2020.1.2,Win32,60,5fb5945709dec70f2d595766,,,,,,,,,,,,,,,,,,,,PF,,,,,,,,7,2.035015,,,,,,,,,,,,,,,,,,,,,,,,,,,,6,54,93,1,0,0,response1disk,2,14,-6,1,0,0,rectangle,14,-6,1,0,0,6,6,"[260,151,153,292,168,216,221,274,21,110,59,265,208,51,71,159,8,252,291,46]",14,-6,1,0,0,111,0,110,110,130,1,,,,,,,,,,,,,,,,,,,,,
,,,,,,,,,,,,,,,,,,,,,,,,,,,,,,,,,,,,,,,,,,,5ac56ef9fa3b4e0001737190,5fb5f1525434b8016d33ffbb,2020-11-19_01h15.45.795,Colour_Similarity_Experiment,2020.1.2,Win32,60,5fb5945709dec70f2d595766,,,,,,,,,,,,,,,,,,,,PF,,,,,,,,3,1.367895,,,,,,,,,,,,,,,,,,,,,,,,,,,,5,-32,-106,1,0,0,response5disk,3,4,14,1,0,0,rectangle,4,14,1,0,0,6,3,"[260,151,153,292,168,216,221,274,21,110,59,265,208,51,71,159,8,252,291,46]",4,14,1,0,0,112,0,111,111,109,1,,,,,,,,,,,,,,,,,,,,,
,,,,,,,,,,,,,,,,,,,,,,,,,,,,,,,,,,,,,,,,,,,5ac56ef9fa3b4e0001737190,5fb5f1525434b8016d33ffbb,2020-11-19_01h15.45.795,Colour_Similarity_Experiment,2020.1.2,Win32,60,5fb5945709dec70f2d595766,,,,,,,,,,,,,,,,,,,,PF,,,,,,,,0,0.985715,,,,,,,,,,,,,,,,,,,,,,,,,,,,8,-38,84,1,0,0,response7disk,8,1,-8,1,0,0,rectangle,1,-8,1,0,0,6,5,"[260,151,153,292,168,216,221,274,21,110,59,265,208,51,71,159,8,252,291,46]",1,-8,1,0,0,113,0,112,112,153,1,,,,,,,,,,,,,,,,,,,,,
,,,,,,,,,,,,,,,,,,,,,,,,,,,,,,,,,,,,,,,,,,,5ac56ef9fa3b4e0001737190,5fb5f1525434b8016d33ffbb,2020-11-19_01h15.45.795,Colour_Similarity_Experiment,2020.1.2,Win32,60,5fb5945709dec70f2d595766,,,,,,,,,,,,,,,,,,,,PF,,,,,,,,0,1.066245,,,,,,,,,,,,,,,,,,,,,,,,,,,,7,-32,65,1,0,0,response7disk,6,-16,9,1,0,0,rectangle,-16,9,1,0,0,6,1,"[260,151,153,292,168,216,221,274,21,110,59,265,208,51,71,159,8,252,291,46]",-16,9,1,0,0,114,0,113,113,29,1,,,,,,,,,,,,,,,,,,,,,
,,,,,,,,,,,,,,,,,,,,,,,,,,,,,,,,,,,,,,,,,,,5ac56ef9fa3b4e0001737190,5fb5f1525434b8016d33ffbb,2020-11-19_01h15.45.795,Colour_Similarity_Experiment,2020.1.2,Win32,60,5fb5945709dec70f2d595766,,,,,,,,,,,,,,,,,,,,PF,,,,,,,,2,1.28702,,,,,,,,,,,,,,,,,,,,,,,,,,,,9,-96,-54,1,0,0,response5disk,1,13,3,1,0,0,rectangle,13,3,1,0,0,6,3,"[260,151,153,292,168,216,221,274,21,110,59,265,208,51,71,159,8,252,291,46]",13,3,1,0,0,115,0,114,114,74,1,,,,,,,,,,,,,,,,,,,,,
,,,,,,,,,,,,,,,,,,,,,,,,,,,,,,,,,,,,,,,,,,,5ac56ef9fa3b4e0001737190,5fb5f1525434b8016d33ffbb,2020-11-19_01h15.45.795,Colour_Similarity_Experiment,2020.1.2,Win32,60,5fb5945709dec70f2d595766,,,,,,,,,,,,,,,,,,,,FF,,,,,,,,7,0.9822,,,,,,,,,,,,,,,,,,,,,,,,,,,,7,42,98,1,0,0,response1disk,3,-10,0,1,0,0,rectangle,-10,0,1,0,0,6,5,"[260,151,153,292,168,216,221,274,21,110,59,265,208,51,71,159,8,252,291,46]",-10,0,1,0,0,116,0,115,115,73,1,,,,,,,,,,,,,,,,,,,,,
,,,,,,,,,,,,,,,,,,,,,,,,,,,,,,,,,,,,,,,,,,,5ac56ef9fa3b4e0001737190,5fb5f1525434b8016d33ffbb,2020-11-19_01h15.45.795,Colour_Similarity_Experiment,2020.1.2,Win32,60,5fb5945709dec70f2d595766,,,,,,,,,,,,,,,,,,,,PF,,,,,,,,0,1.098095,,,,,,,,,,,,,,,,,,,,,,,,,,,,6,-50,93,1,0,0,response7disk,6,1,-1,1,0,0,rectangle,1,-1,1,0,0,6,5,"[260,151,153,292,168,216,221,274,21,110,59,265,208,51,71,159,8,252,291,46]",1,-1,1,0,0,117,0,116,116,0,1,,,,,,,,,,,,,,,,,,,,,
,,,,,,,,,,,,,,,,,,,,,,,,,,,,,,,,,,,,,,,,,,,5ac56ef9fa3b4e0001737190,5fb5f1525434b8016d33ffbb,2020-11-19_01h15.45.795,Colour_Similarity_Experiment,2020.1.2,Win32,60,5fb5945709dec70f2d595766,,,,,,,,,,,,,,,,,,,,FF,,,,,,,,7,1.26841,,,,,,,,,,,,,,,,,,,,,,,,,,,,5,57,114,1,0,0,response1disk,1,5,8,1,0,0,rectangle,5,8,1,0,0,6,2,"[260,151,153,292,168,216,221,274,21,110,59,265,208,51,71,159,8,252,291,46]",5,8,1,0,0,118,0,117,117,131,1,,,,,,,,,,,,,,,,,,,,,
,,,,,,,,,,,,,,,,,,,,,,,,,,,,,,,,,,,,,,,,,,,5ac56ef9fa3b4e0001737190,5fb5f1525434b8016d33ffbb,2020-11-19_01h15.45.795,Colour_Similarity_Experiment,2020.1.2,Win32,60,5fb5945709dec70f2d595766,,,,,,,,,,,,,,,,,,,,FF,,,,,,,,4,1.35068,,,,,,,,,,,,,,,,,,,,,,,,,,,,2,49,-115,1,0,0,response3disk,1,18,-7,1,0,0,rectangle,18,-7,1,0,0,6,5,"[260,151,153,292,168,216,221,274,21,110,59,265,208,51,71,159,8,252,291,46]",18,-7,1,0,0,119,0,118,118,85,1,,,,,,,,,,,,,,,,,,,,,
,,,,,,,,,,,,,,,,,,,,,,,,,,,,,,,,,,,,,,,,,,,5ac56ef9fa3b4e0001737190,5fb5f1525434b8016d33ffbb,2020-11-19_01h15.45.795,Colour_Similarity_Experiment,2020.1.2,Win32,60,5fb5945709dec70f2d595766,,,,,,,,,,,,,,,,,,,,PF,,,,,,,,0,1.18658,,,,,,,,,,,,,,,,,,,,,,,,,,,,5,-63,97,1,0,0,response7disk,5,-2,-2,1,0,0,rectangle,-2,-2,1,0,0,6,6,"[260,151,153,292,168,216,221,274,21,110,59,265,208,51,71,159,8,252,291,46]",-2,-2,1,0,0,120,0,119,119,94,1,,,,,,,,,,,,,,,,,,,,,
,,,,,,,,,,,,,,,,,,,,,,,,,,,,,,,,,,,,,,,,,,,5ac56ef9fa3b4e0001737190,5fb5f1525434b8016d33ffbb,2020-11-19_01h15.45.795,Colour_Similarity_Experiment,2020.1.2,Win32,60,5fb5945709dec70f2d595766,,,,,,,,,,,,,,,,,,,,PF,,,,,,,,7,1.720525,,,,,,,,,,,,,,,,,,,,,,,,,,,,4,62,100,1,0,0,response1disk,8,15,1,1,0,0,rectangle,15,1,1,0,0,6,4,"[260,151,153,292,168,216,221,274,21,110,59,265,208,51,71,159,8,252,291,46]",15,1,1,0,0,121,0,120,120,124,1,,,,,,,,,,,,,,,,,,,,,
,,,,,,,,,,,,,,,,,,,,,,,,,,,,,,,,,,,,,,,,,,,5ac56ef9fa3b4e0001737190,5fb5f1525434b8016d33ffbb,2020-11-19_01h15.45.795,Colour_Similarity_Experiment,2020.1.2,Win32,60,5fb5945709dec70f2d595766,,,,,,,,,,,,,,,,,,,,PF,,,,,,,,7,1.02764,,,,,,,,,,,,,,,,,,,,,,,,,,,,8,71,109,1,0,0,response1disk,3,10,1,1,0,0,rectangle,10,1,1,0,0,6,7,"[260,151,153,292,168,216,221,274,21,110,59,265,208,51,71,159,8,252,291,46]",10,1,1,0,0,122,0,121,121,71,1,,,,,,,,,,,,,,,,,,,,,
,,,,,,,,,,,,,,,,,,,,,,,,,,,,,,,,,,,,,,,,,,,5ac56ef9fa3b4e0001737190,5fb5f1525434b8016d33ffbb,2020-11-19_01h15.45.795,Colour_Similarity_Experiment,2020.1.2,Win32,60,5fb5945709dec70f2d595766,,,,,,,,,,,,,,,,,,,,PF,,,,,,,,2,1.882815,,,,,,,,,,,,,,,,,,,,,,,,,,,,4,-90,-72,1,0,0,response5disk,4,-31,-11,1,0,0,rectangle,-31,-11,1,0,0,6,1,"[260,151,153,292,168,216,221,274,21,110,59,265,208,51,71,159,8,252,291,46]",-31,-11,1,0,0,123,0,122,122,70,1,,,,,,,,,,,,,,,,,,,,,
,,,,,,,,,,,,,,,,,,,,,,,,,,,,,,,,,,,,,,,,,,,5ac56ef9fa3b4e0001737190,5fb5f1525434b8016d33ffbb,2020-11-19_01h15.45.795,Colour_Similarity_Experiment,2020.1.2,Win32,60,5fb5945709dec70f2d595766,,,,,,,,,,,,,,,,,,,,PF,,,,,,,,7,1.06667,,,,,,,,,,,,,,,,,,,,,,,,,,,,1,57,105,1,0,0,response1disk,7,9,6,1,0,0,rectangle,9,6,1,0,0,6,7,"[260,151,153,292,168,216,221,274,21,110,59,265,208,51,71,159,8,252,291,46]",9,6,1,0,0,124,0,123,123,150,1,,,,,,,,,,,,,,,,,,,,,
,,,,,,,,,,,,,,,,,,,,,,,,,,,,,,,,,,,,,,,,,,,5ac56ef9fa3b4e0001737190,5fb5f1525434b8016d33ffbb,2020-11-19_01h15.45.795,Colour_Similarity_Experiment,2020.1.2,Win32,60,5fb5945709dec70f2d595766,,,,,,,,,,,,,,,,,,,,PF,,,,,,,,7,2.06089,,,,,,,,,,,,,,,,,,,,,,,,,,,,5,64,126,1,0,0,response1disk,9,7,3,1,0,0,rectangle,7,3,1,0,0,6,3,"[260,151,153,292,168,216,221,274,21,110,59,265,208,51,71,159,8,252,291,46]",7,3,1,0,0,125,0,124,124,136,1,,,,,,,,,,,,,,,,,,,,,
,,,,,,,,,,,,,,,,,,,,,,,,,,,,,,,,,,,,,,,,,,,5ac56ef9fa3b4e0001737190,5fb5f1525434b8016d33ffbb,2020-11-19_01h15.45.795,Colour_Similarity_Experiment,2020.1.2,Win32,60,5fb5945709dec70f2d595766,,,,,,,,,,,,,,,,,,,,FF,,,,,,,,7,1.04595,,,,,,,,,,,,,,,,,,,,,,,,,,,,8,60,105,1,0,0,response1disk,4,10,5,1,0,0,rectangle,10,5,1,0,0,6,2,"[260,151,153,292,168,216,221,274,21,110,59,265,208,51,71,159,8,252,291,46]",10,5,1,0,0,126,0,125,125,88,1,,,,,,,,,,,,,,,,,,,,,
,,,,,,,,,,,,,,,,,,,,,,,,,,,,,,,,,,,,,,,,,,,5ac56ef9fa3b4e0001737190,5fb5f1525434b8016d33ffbb,2020-11-19_01h15.45.795,Colour_Similarity_Experiment,2020.1.2,Win32,60,5fb5945709dec70f2d595766,,,,,,,,,,,,,,,,,,,,FF,,,,,,,,2,1.50605,,,,,,,,,,,,,,,,,,,,,,,,,,,,5,-84,-59,1,0,0,response5disk,3,-17,-9,1,0,0,rectangle,-17,-9,1,0,0,6,3,"[260,151,153,292,168,216,221,274,21,110,59,265,208,51,71,159,8,252,291,46]",-17,-9,1,0,0,127,0,126,126,25,1,,,,,,,,,,,,,,,,,,,,,
,,,,,,,,,,,,,,,,,,,,,,,,,,,,,,,,,,,,,,,,,,,5ac56ef9fa3b4e0001737190,5fb5f1525434b8016d33ffbb,2020-11-19_01h15.45.795,Colour_Similarity_Experiment,2020.1.2,Win32,60,5fb5945709dec70f2d595766,,,,,,,,,,,,,,,,,,,,FF,,,,,,,,4,1.50483,,,,,,,,,,,,,,,,,,,,,,,,,,,,6,41,-97,1,0,0,response3disk,3,0,-7,1,0,0,rectangle,0,-7,1,0,0,6,2,"[260,151,153,292,168,216,221,274,21,110,59,265,208,51,71,159,8,252,291,46]",0,-7,1,0,0,128,0,127,127,21,1,,,,,,,,,,,,,,,,,,,,,
,,,,,,,,,,,,,,,,,,,,,,,,,,,,,,,,,,,,,,,,,,,5ac56ef9fa3b4e0001737190,5fb5f1525434b8016d33ffbb,2020-11-19_01h15.45.795,Colour_Similarity_Experiment,2020.1.2,Win32,60,5fb5945709dec70f2d595766,,,,,,,,,,,,,,,,,,,,PF,,,,,,,,4,2.08543,,,,,,,,,,,,,,,,,,,,,,,,,,,,3,36,-85,1,0,0,response3disk,5,-3,-3,1,0,0,rectangle,-3,-3,1,0,0,6,4,"[260,151,153,292,168,216,221,274,21,110,59,265,208,51,71,159,8,252,291,46]",-3,-3,1,0,0,129,0,128,128,66,1,,,,,,,,,,,,,,,,,,,,,
,,,,,,,,,,,,,,,,,,,,,,,,,,,,,,,,,,,,,,,,,,,5ac56ef9fa3b4e0001737190,5fb5f1525434b8016d33ffbb,2020-11-19_01h15.45.795,Colour_Similarity_Experiment,2020.1.2,Win32,60,5fb5945709dec70f2d595766,,,,,,,,,,,,,,,,,,,,FF,,,,,,,,1,1.5093,,,,,,,,,,,,,,,,,,,,,,,,,,,,7,-100,32,1,0,0,response7disk,6,-12,-1,1,0,0,rectangle,-12,-1,1,0,0,6,3,"[260,151,153,292,168,216,221,274,21,110,59,265,208,51,71,159,8,252,291,46]",-12,-1,1,0,0,130,0,129,129,31,1,,,,,,,,,,,,,,,,,,,,,
,,,,,,,,,,,,,,,,,,,,,,,,,,,,,,,,,,,,,,,,,,,5ac56ef9fa3b4e0001737190,5fb5f1525434b8016d33ffbb,2020-11-19_01h15.45.795,Colour_Similarity_Experiment,2020.1.2,Win32,60,5fb5945709dec70f2d595766,,,,,,,,,,,,,,,,,,,,PF,,,,,,,,3,1.59306,,,,,,,,,,,,,,,,,,,,,,,,,,,,8,-49,-97,1,0,0,response5disk,6,-7,-2,1,0,0,rectangle,-7,-2,1,0,0,6,0,"[260,151,153,292,168,216,221,274,21,110,59,265,208,51,71,159,8,252,291,46]",-7,-2,1,0,0,131,0,130,130,161,1,,,,,,,,,,,,,,,,,,,,,
,,,,,,,,,,,,,,,,,,,,,,,,,,,,,,,,,,,,,,,,,,,5ac56ef9fa3b4e0001737190,5fb5f1525434b8016d33ffbb,2020-11-19_01h15.45.795,Colour_Similarity_Experiment,2020.1.2,Win32,60,5fb5945709dec70f2d595766,,,,,,,,,,,,,,,,,,,,PF,,,,,,,,7,1.435305,,,,,,,,,,,,,,,,,,,,,,,,,,,,8,50,107,1,0,0,response1disk,4,-5,-7,1,0,0,rectangle,-5,-7,1,0,0,6,5,"[260,151,153,292,168,216,221,274,21,110,59,265,208,51,71,159,8,252,291,46]",-5,-7,1,0,0,132,0,131,131,78,1,,,,,,,,,,,,,,,,,,,,,
,,,,,,,,,,,,,,,,,,,,,,,,,,,,,,,,,,,,,,,,,,,5ac56ef9fa3b4e0001737190,5fb5f1525434b8016d33ffbb,2020-11-19_01h15.45.795,Colour_Similarity_Experiment,2020.1.2,Win32,60,5fb5945709dec70f2d595766,,,,,,,,,,,,,,,,,,,,PF,,,,,,,,4,2.11769,,,,,,,,,,,,,,,,,,,,,,,,,,,,6,50,-80,1,0,0,response3disk,4,-5,-8,1,0,0,rectangle,-5,-8,1,0,0,6,1,"[260,151,153,292,168,216,221,274,21,110,59,265,208,51,71,159,8,252,291,46]",-5,-8,1,0,0,133,0,132,132,33,1,,,,,,,,,,,,,,,,,,,,,
,,,,,,,,,,,,,,,,,,,,,,,,,,,,,,,,,,,,,,,,,,,5ac56ef9fa3b4e0001737190,5fb5f1525434b8016d33ffbb,2020-11-19_01h15.45.795,Colour_Similarity_Experiment,2020.1.2,Win32,60,5fb5945709dec70f2d595766,,,,,,,,,,,,,,,,,,,,FF,,,,,,,,7,1.48792,,,,,,,,,,,,,,,,,,,,,,,,,,,,3,60,92,1,0,0,response1disk,1,20,9,1,0,0,rectangle,20,9,1,0,0,6,2,"[260,151,153,292,168,216,221,274,21,110,59,265,208,51,71,159,8,252,291,46]",20,9,1,0,0,134,0,133,133,125,1,,,,,,,,,,,,,,,,,,,,,
,,,,,,,,,,,,,,,,,,,,,,,,,,,,,,,,,,,,,,,,,,,5ac56ef9fa3b4e0001737190,5fb5f1525434b8016d33ffbb,2020-11-19_01h15.45.795,Colour_Similarity_Experiment,2020.1.2,Win32,60,5fb5945709dec70f2d595766,,,,,,,,,,,,,,,,,,,,FF,,,,,,,,0,1.04192,,,,,,,,,,,,,,,,,,,,,,,,,,,,2,-57,99,1,0,0,response7disk,2,-16,9,1,0,0,rectangle,-16,9,1,0,0,6,5,"[260,151,153,292,168,216,221,274,21,110,59,265,208,51,71,159,8,252,291,46]",-16,9,1,0,0,135,0,134,134,142,1,,,,,,,,,,,,,,,,,,,,,
,,,,,,,,,,,,,,,,,,,,,,,,,,,,,,,,,,,,,,,,,,,5ac56ef9fa3b4e0001737190,5fb5f1525434b8016d33ffbb,2020-11-19_01h15.45.795,Colour_Similarity_Experiment,2020.1.2,Win32,60,5fb5945709dec70f2d595766,,,,,,,,,,,,,,,,,,,,FF,,,,,,,,4,1.828665,,,,,,,,,,,,,,,,,,,,,,,,,,,,4,39,-128,1,0,0,response3disk,7,-11,-2,1,0,0,rectangle,-11,-2,1,0,0,6,4,"[260,151,153,292,168,216,221,274,21,110,59,265,208,51,71,159,8,252,291,46]",-11,-2,1,0,0,136,0,135,135,87,1,,,,,,,,,,,,,,,,,,,,,
,,,,,,,,,,,,,,,,,,,,,,,,,,,,,,,,,,,,,,,,,,,5ac56ef9fa3b4e0001737190,5fb5f1525434b8016d33ffbb,2020-11-19_01h15.45.795,Colour_Similarity_Experiment,2020.1.2,Win32,60,5fb5945709dec70f2d595766,,,,,,,,,,,,,,,,,,,,FF,,,,,,,,7,1.305855,,,,,,,,,,,,,,,,,,,,,,,,,,,,8,65,102,1,0,0,response1disk,3,21,-1,1,0,0,rectangle,21,-1,1,0,0,6,5,"[260,151,153,292,168,216,221,274,21,110,59,265,208,51,71,159,8,252,291,46]",21,-1,1,0,0,137,0,136,136,154,1,,,,,,,,,,,,,,,,,,,,,
,,,,,,,,,,,,,,,,,,,,,,,,,,,,,,,,,,,,,,,,,,,5ac56ef9fa3b4e0001737190,5fb5f1525434b8016d33ffbb,2020-11-19_01h15.45.795,Colour_Similarity_Experiment,2020.1.2,Win32,60,5fb5945709dec70f2d595766,,,,,,,,,,,,,,,,,,,,PF,,,,,,,,7,1.86105,,,,,,,,,,,,,,,,,,,,,,,,,,,,3,74,116,1,0,0,response1disk,9,-6,-4,1,0,0,rectangle,-6,-4,1,0,0,6,5,"[260,151,153,292,168,216,221,274,21,110,59,265,208,51,71,159,8,252,291,46]",-6,-4,1,0,0,138,0,137,137,79,1,,,,,,,,,,,,,,,,,,,,,
,,,,,,,,,,,,,,,,,,,,,,,,,,,,,,,,,,,,,,,,,,,5ac56ef9fa3b4e0001737190,5fb5f1525434b8016d33ffbb,2020-11-19_01h15.45.795,Colour_Similarity_Experiment,2020.1.2,Win32,60,5fb5945709dec70f2d595766,,,,,,,,,,,,,,,,,,,,PF,,,,,,,,4,1.926535,,,,,,,,,,,,,,,,,,,,,,,,,,,,4,35,-117,1,0,0,response3disk,1,5,2,1,0,0,rectangle,5,2,1,0,0,6,2,"[260,151,153,292,168,216,221,274,21,110,59,265,208,51,71,159,8,252,291,46]",5,2,1,0,0,139,0,138,138,115,1,,,,,,,,,,,,,,,,,,,,,
,,,,,,,,,,,,,,,,,,,,,,,,,,,,,,,,,,,,,,,,,,,5ac56ef9fa3b4e0001737190,5fb5f1525434b8016d33ffbb,2020-11-19_01h15.45.795,Colour_Similarity_Experiment,2020.1.2,Win32,60,5fb5945709dec70f2d595766,,,,,,,,,,,,,,,,,,,,PF,,,,,,,,4,1.38217,,,,,,,,,,,,,,,,,,,,,,,,,,,,6,49,-91,1,0,0,response3disk,5,2,-2,1,0,0,rectangle,2,-2,1,0,0,6,4,"[260,151,153,292,168,216,221,274,21,110,59,265,208,51,71,159,8,252,291,46]",2,-2,1,0,0,140,0,139,139,59,1,,,,,,,,,,,,,,,,,,,,,
,,,,,,,,,,,,,,,,,,,,,,,,,,,,,,,,,,,,,,,,,,,5ac56ef9fa3b4e0001737190,5fb5f1525434b8016d33ffbb,2020-11-19_01h15.45.795,Colour_Similarity_Experiment,2020.1.2,Win32,60,5fb5945709dec70f2d595766,,,,,,,,,,,,,,,,,,,,PF,,,,,,,,3,1.941415,,,,,,,,,,,,,,,,,,,,,,,,,,,,4,-43,-117,1,0,0,response5disk,6,-5,-5,1,0,0,rectangle,-5,-5,1,0,0,6,2,"[260,151,153,292,168,216,221,274,21,110,59,265,208,51,71,159,8,252,291,46]",-5,-5,1,0,0,141,0,140,140,120,1,,,,,,,,,,,,,,,,,,,,,
,,,,,,,,,,,,,,,,,,,,,,,,,,,,,,,,,,,,,,,,,,,5ac56ef9fa3b4e0001737190,5fb5f1525434b8016d33ffbb,2020-11-19_01h15.45.795,Colour_Similarity_Experiment,2020.1.2,Win32,60,5fb5945709dec70f2d595766,,,,,,,,,,,,,,,,,,,,PF,,,,,,,,4,2.80935,,,,,,,,,,,,,,,,,,,,,,,,,,,,8,99,-111,1,0,0,response3disk,5,18,3,1,0,0,rectangle,18,3,1,0,0,6,2,"[260,151,153,292,168,216,221,274,21,110,59,265,208,51,71,159,8,252,291,46]",18,3,1,0,0,142,0,141,141,98,1,,,,,,,,,,,,,,,,,,,,,
,,,,,,,,,,,,,,,,,,,,,,,,,,,,,,,,,,,,,,,,,,,5ac56ef9fa3b4e0001737190,5fb5f1525434b8016d33ffbb,2020-11-19_01h15.45.795,Colour_Similarity_Experiment,2020.1.2,Win32,60,5fb5945709dec70f2d595766,,,,,,,,,,,,,,,,,,,,FF,,,,,,,,7,1.466315,,,,,,,,,,,,,,,,,,,,,,,,,,,,9,69,107,1,0,0,response1disk,3,-9,-8,1,0,0,rectangle,-9,-8,1,0,0,6,2,"[260,151,153,292,168,216,221,274,21,110,59,265,208,51,71,159,8,252,291,46]",-9,-8,1,0,0,143,0,142,142,141,1,,,,,,,,,,,,,,,,,,,,,
,,,,,,,,,,,,,,,,,,,,,,,,,,,,,,,,,,,,,,,,,,,5ac56ef9fa3b4e0001737190,5fb5f1525434b8016d33ffbb,2020-11-19_01h15.45.795,Colour_Similarity_Experiment,2020.1.2,Win32,60,5fb5945709dec70f2d595766,,,,,,,,,,,,,,,,,,,,FF,,,,,,,,6,2.340175,,,,,,,,,,,,,,,,,,,,,,,,,,,,2,115,30,1,0,0,response1disk,3,17,-7,1,0,0,rectangle,17,-7,1,0,0,6,0,"[260,151,153,292,168,216,221,274,21,110,59,265,208,51,71,159,8,252,291,46]",17,-7,1,0,0,144,0,143,143,104,1,,,,,,,,,,,,,,,,,,,,,
,,,,,,,,,,,,,,,,,,,,,,,,,,,,,,,,,,,,,,,,,,,5ac56ef9fa3b4e0001737190,5fb5f1525434b8016d33ffbb,2020-11-19_01h15.45.795,Colour_Similarity_Experiment,2020.1.2,Win32,60,5fb5945709dec70f2d595766,,,,,,,,,,,,,,,,,,,,FF,,,,,,,,7,1.48309,,,,,,,,,,,,,,,,,,,,,,,,,,,,6,63,134,1,0,0,response1disk,9,1,0,1,0,0,rectangle,1,0,1,0,0,6,4,"[260,151,153,292,168,216,221,274,21,110,59,265,208,51,71,159,8,252,291,46]",1,0,1,0,0,145,0,144,144,160,1,,,,,,,,,,,,,,,,,,,,,
,,,,,,,,,,,,,,,,,,,,,,,,,,,,,,,,,,,,,,,,,,,5ac56ef9fa3b4e0001737190,5fb5f1525434b8016d33ffbb,2020-11-19_01h15.45.795,Colour_Similarity_Experiment,2020.1.2,Win32,60,5fb5945709dec70f2d595766,,,,,,,,,,,,,,,,,,,,FF,,,,,,,,0,0.987735,,,,,,,,,,,,,,,,,,,,,,,,,,,,9,-49,130,1,0,0,response7disk,9,0,5,1,0,0,rectangle,0,5,1,0,0,6,4,"[260,151,153,292,168,216,221,274,21,110,59,265,208,51,71,159,8,252,291,46]",0,5,1,0,0,146,0,145,145,17,1,,,,,,,,,,,,,,,,,,,,,
,,,,,,,,,,,,,,,,,,,,,,,,,,,,,,,,,,,,,,,,,,,5ac56ef9fa3b4e0001737190,5fb5f1525434b8016d33ffbb,2020-11-19_01h15.45.795,Colour_Similarity_Experiment,2020.1.2,Win32,60,5fb5945709dec70f2d595766,,,,,,,,,,,,,,,,,,,,FF,,,,,,,,3,2.44426,,,,,,,,,,,,,,,,,,,,,,,,,,,,7,-46,-105,1,0,0,response5disk,8,5,-6,1,0,0,rectangle,5,-6,1,0,0,6,3,"[260,151,153,292,168,216,221,274,21,110,59,265,208,51,71,159,8,252,291,46]",5,-6,1,0,0,147,0,146,146,97,1,,,,,,,,,,,,,,,,,,,,,
,,,,,,,,,,,,,,,,,,,,,,,,,,,,,,,,,,,,,,,,,,,5ac56ef9fa3b4e0001737190,5fb5f1525434b8016d33ffbb,2020-11-19_01h15.45.795,Colour_Similarity_Experiment,2020.1.2,Win32,60,5fb5945709dec70f2d595766,,,,,,,,,,,,,,,,,,,,PF,,,,,,,,6,3.115915,,,,,,,,,,,,,,,,,,,,,,,,,,,,7,113,67,1,0,0,response1disk,9,-15,-3,1,0,0,rectangle,-15,-3,1,0,0,6,2,"[260,151,153,292,168,216,221,274,21,110,59,265,208,51,71,159,8,252,291,46]",-15,-3,1,0,0,148,0,147,147,10,1,,,,,,,,,,,,,,,,,,,,,
,,,,,,,,,,,,,,,,,,,,,,,,,,,,,,,,,,,,,,,,,,,5ac56ef9fa3b4e0001737190,5fb5f1525434b8016d33ffbb,2020-11-19_01h15.45.795,Colour_Similarity_Experiment,2020.1.2,Win32,60,5fb5945709dec70f2d595766,,,,,,,,,,,,,,,,,,,,FF,,,,,,,,7,0.8725,,,,,,,,,,,,,,,,,,,,,,,,,,,,1,71,126,1,0,0,response1disk,7,8,6,1,0,0,rectangle,8,6,1,0,0,6,4,"[260,151,153,292,168,216,221,274,21,110,59,265,208,51,71,159,8,252,291,46]",8,6,1,0,0,149,0,148,148,137,1,,,,,,,,,,,,,,,,,,,,,
,,,,,,,,,,,,,,,,,,,,,,,,,,,,,,,,,,,,,,,,,,,5ac56ef9fa3b4e0001737190,5fb5f1525434b8016d33ffbb,2020-11-19_01h15.45.795,Colour_Similarity_Experiment,2020.1.2,Win32,60,5fb5945709dec70f2d595766,,,,,,,,,,,,,,,,,,,,PF,,,,,,,,5,2.140905,,,,,,,,,,,,,,,,,,,,,,,,,,,,8,106,-49,1,0,0,response3disk,1,-7,-7,1,0,0,rectangle,-7,-7,1,0,0,6,1,"[260,151,153,292,168,216,221,274,21,110,59,265,208,51,71,159,8,252,291,46]",-7,-7,1,0,0,150,0,149,149,57,1,,,,,,,,,,,,,,,,,,,,,
,,,,,,,,,,,,,,,,,,,,,,,,,,,,,,,,,,,,,,,,,,,5ac56ef9fa3b4e0001737190,5fb5f1525434b8016d33ffbb,2020-11-19_01h15.45.795,Colour_Similarity_Experiment,2020.1.2,Win32,60,5fb5945709dec70f2d595766,,,,,,,,,,,,,,,,,,,,FF,,,,,,,,6,2.477975,,,,,,,,,,,,,,,,,,,,,,,,,,,,3,137,47,1,0,0,response1disk,6,2,-4,1,0,0,rectangle,62,119,1,0,0,7,7,"[260,151,153,292,168,216,221,274,21,110,59,265,208,51,71,159,8,252,291,46]",-3,-9,1,0,0,151,0,150,150,95,1,response1disk_3,rectangle,,,,,,,,,,,,,,,,,,,
,,,,,,,,,,,,,,,,,,,,,,,,,,,,,,,,,,,,,,,,,,,5ac56ef9fa3b4e0001737190,5fb5f1525434b8016d33ffbb,2020-11-19_01h15.45.795,Colour_Similarity_Experiment,2020.1.2,Win32,60,5fb5945709dec70f2d595766,,,,,,,,,,,,,,,,,,,,FF,,,,,,,,0,0.95582,,,,,,,,,,,,,,,,,,,,,,,,,,,,7,-49,109,1,0,0,response7disk,7,4,2,1,0,0,rectangle,4,2,1,0,0,7,7,"[260,151,153,292,168,216,221,274,21,110,59,265,208,51,71,159,8,252,291,46]",4,2,1,0,0,152,0,151,151,34,1,,,,,,,,,,,,,,,,,,,,,
,,,,,,,,,,,,,,,,,,,,,,,,,,,,,,,,,,,,,,,,,,,5ac56ef9fa3b4e0001737190,5fb5f1525434b8016d33ffbb,2020-11-19_01h15.45.795,Colour_Similarity_Experiment,2020.1.2,Win32,60,5fb5945709dec70f2d595766,,,,,,,,,,,,,,,,,,,,PF,,,,,,,,7,1.287035,,,,,,,,,,,,,,,,,,,,,,,,,,,,1,48,109,1,0,0,response1disk,6,6,-12,1,0,0,rectangle,-101,-54,1,0,0,7,2,"[260,151,153,292,168,216,221,274,21,110,59,265,208,51,71,159,8,252,291,46]",2,-4,1,0,0,153,0,152,152,144,1,response5disk_3,rectangle,,,,,,,,,,,,,,,,,,,
,,,,,,,,,,,,,,,,,,,,,,,,,,,,,,,,,,,,,,,,,,,5ac56ef9fa3b4e0001737190,5fb5f1525434b8016d33ffbb,2020-11-19_01h15.45.795,Colour_Similarity_Experiment,2020.1.2,Win32,60,5fb5945709dec70f2d595766,,,,,,,,,,,,,,,,,,,,FF,,,,,,,,0,1.14354,,,,,,,,,,,,,,,,,,,,,,,,,,,,8,-52,83,1,0,0,response7disk,8,-17,-8,1,0,0,rectangle,-17,-8,1,0,0,7,2,"[260,151,153,292,168,216,221,274,21,110,59,265,208,51,71,159,8,252,291,46]",-17,-8,1,0,0,154,0,153,153,48,1,,,,,,,,,,,,,,,,,,,,,
,,,,,,,,,,,,,,,,,,,,,,,,,,,,,,,,,,,,,,,,,,,5ac56ef9fa3b4e0001737190,5fb5f1525434b8016d33ffbb,2020-11-19_01h15.45.795,Colour_Similarity_Experiment,2020.1.2,Win32,60,5fb5945709dec70f2d595766,,,,,,,,,,,,,,,,,,,,FF,,,,,,,,7,1.598815,,,,,,,,,,,,,,,,,,,,,,,,,,,,2,42,101,1,0,0,response1disk,5,5,12,1,0,0,rectangle,5,12,1,0,0,7,2,"[260,151,153,292,168,216,221,274,21,110,59,265,208,51,71,159,8,252,291,46]",5,12,1,0,0,155,0,154,154,80,1,,,,,,,,,,,,,,,,,,,,,
,,,,,,,,,,,,,,,,,,,,,,,,,,,,,,,,,,,,,,,,,,,5ac56ef9fa3b4e0001737190,5fb5f1525434b8016d33ffbb,2020-11-19_01h15.45.795,Colour_Similarity_Experiment,2020.1.2,Win32,60,5fb5945709dec70f2d595766,,,,,,,,,,,,,,,,,,,,PF,,,,,,,,7,1.023585,,,,,,,,,,,,,,,,,,,,,,,,,,,,8,54,94,1,0,0,response1disk,2,-4,-14,1,0,0,rectangle,-4,-14,1,0,0,7,0,"[260,151,153,292,168,216,221,274,21,110,59,265,208,51,71,159,8,252,291,46]",-4,-14,1,0,0,156,0,155,155,83,1,,,,,,,,,,,,,,,,,,,,,
,,,,,,,,,,,,,,,,,,,,,,,,,,,,,,,,,,,,,,,,,,,5ac56ef9fa3b4e0001737190,5fb5f1525434b8016d33ffbb,2020-11-19_01h15.45.795,Colour_Similarity_Experiment,2020.1.2,Win32,60,5fb5945709dec70f2d595766,,,,,,,,,,,,,,,,,,,,FF,,,,,,,,3,1.52734,,,,,,,,,,,,,,,,,,,,,,,,,,,,4,-45,-121,1,0,0,response5disk,5,-3,-17,1,0,0,rectangle,-3,-17,1,0,0,7,1,"[260,151,153,292,168,216,221,274,21,110,59,265,208,51,71,159,8,252,291,46]",-3,-17,1,0,0,157,0,156,156,116,1,,,,,,,,,,,,,,,,,,,,,
,,,,,,,,,,,,,,,,,,,,,,,,,,,,,,,,,,,,,,,,,,,5ac56ef9fa3b4e0001737190,5fb5f1525434b8016d33ffbb,2020-11-19_01h15.45.795,Colour_Similarity_Experiment,2020.1.2,Win32,60,5fb5945709dec70f2d595766,,,,,,,,,,,,,,,,,,,,PF,,,,,,,,2,1.791675,,,,,,,,,,,,,,,,,,,,,,,,,,,,6,-96,-61,1,0,0,response5disk,7,1,-5,1,0,0,rectangle,1,-5,1,0,0,7,5,"[260,151,153,292,168,216,221,274,21,110,59,265,208,51,71,159,8,252,291,46]",1,-5,1,0,0,158,0,157,157,50,1,,,,,,,,,,,,,,,,,,,,,
,,,,,,,,,,,,,,,,,,,,,,,,,,,,,,,,,,,,,,,,,,,5ac56ef9fa3b4e0001737190,5fb5f1525434b8016d33ffbb,2020-11-19_01h15.45.795,Colour_Similarity_Experiment,2020.1.2,Win32,60,5fb5945709dec70f2d595766,,,,,,,,,,,,,,,,,,,,PF,,,,,,,,5,1.318525,,,,,,,,,,,,,,,,,,,,,,,,,,,,7,89,-52,1,0,0,response3disk,4,8,-1,1,0,0,rectangle,91,54,1,0,0,6,6,"[260,151,153,292,168,216,221,274,21,110,59,265,208,51,71,159,8,252,291,46]",17,-3,1,0,0,159,0,158,158,43,1,response1disk_3,rectangle,,,,,,,,,,,,,,,,,,,
,,,,,,,,,,,,,,,,,,,,,,,,,,,,,,,,,,,,,,,,,,,5ac56ef9fa3b4e0001737190,5fb5f1525434b8016d33ffbb,2020-11-19_01h15.45.795,Colour_Similarity_Experiment,2020.1.2,Win32,60,5fb5945709dec70f2d595766,,,,,,,,,,,,,,,,,,,,PF,,,,,,,,6,4.505185,,,,,,,,,,,,,,,,,,,,,,,,,,,,9,105,45,1,0,0,response1disk,6,-13,-5,1,0,0,rectangle,-13,-5,1,0,0,6,6,"[260,151,153,292,168,216,221,274,21,110,59,265,208,51,71,159,8,252,291,46]",-13,-5,1,0,0,160,0,159,159,148,1,,,,,,,,,,,,,,,,,,,,,
,,,,,,,,,,,,,,,,,,,,,,,,,,,,,,,,,,,,,,,,,,,5ac56ef9fa3b4e0001737190,5fb5f1525434b8016d33ffbb,2020-11-19_01h15.45.795,Colour_Similarity_Experiment,2020.1.2,Win32,60,5fb5945709dec70f2d595766,,,,,,,,,,,,,,,,,,,,PF,,,,,,,,7,0.86085,,,,,,,,,,,,,,,,,,,,,,,,,,,,3,52,95,1,0,0,response1disk,8,2,-13,1,0,0,rectangle,2,-13,1,0,0,6,7,"[260,151,153,292,168,216,221,274,21,110,59,265,208,51,71,159,8,252,291,46]",2,-13,1,0,0,161,0,160,160,3,1,,,,,,,,,,,,,,,,,,,,,
,,,,,,,,,,,,,,,,,,,,,,,,,,,,,,,,,,,,,,,,,,,5ac56ef9fa3b4e0001737190,5fb5f1525434b8016d33ffbb,2020-11-19_01h15.45.795,Colour_Similarity_Experiment,2020.1.2,Win32,60,5fb5945709dec70f2d595766,,,,,,,,,,,,,,,,,,,,FF,,,,,,,,6,2.406255,,,,,,,,,,,,,,,,,,,,,,,,,,,,8,105,43,1,0,0,response1disk,5,5,-8,1,0,0,rectangle,5,-8,1,0,0,6,0,"[260,151,153,292,168,216,221,274,21,110,59,265,208,51,71,159,8,252,291,46]",5,-8,1,0,0,162,0,161,161,152,1,,,,,,,,,,,,,,,,,,,,,
,,,,,,,,,,,,,,,,,,,,,,,,,,,,,,,,,,,,,,,,,,,5ac56ef9fa3b4e0001737190,5fb5f1525434b8016d33ffbb,2020-11-19_01h15.45.795,Colour_Similarity_Experiment,2020.1.2,Win32,60,5fb5945709dec70f2d595766,,,,,,,,,,,,,,,,,,,,,,,,,,,,,,,,,,,,,,,,,,,,,,,,,,,,,,,,,,,,,,,,,,,,,,,,,,,,,,,,,,,,,,,,,,,,0,0,0,0,1,,,,,,,,,,,,,,
,,,,,,,,,,,,,,,,,,,,,,,,,,,,,,,,,,,,,,,,,,,5ac56ef9fa3b4e0001737190,5fb5f1525434b8016d33ffbb,2020-11-19_01h15.45.795,Colour_Similarity_Experiment,2020.1.2,Win32,60,5fb5945709dec70f2d595766,,,,,,,,,,,,,,,,,,,,PF,,,,,,,,0,1.089735,,,,,,,,,,,,,,,,,,,,,,,,,,,,9,-66,98,1,0,0,response7disk,9,-19,-9,1,0,0,rectangle,-19,-9,1,0,0,6,5,"[260,151,153,292,168,216,221,274,21,110,59,265,208,51,71,159,8,252,291,46]",-19,-9,1,0,0,163,0,0,0,106,1,,,,,,,,,,,,,,,,,,,,,
,,,,,,,,,,,,,,,,,,,,,,,,,,,,,,,,,,,,,,,,,,,5ac56ef9fa3b4e0001737190,5fb5f1525434b8016d33ffbb,2020-11-19_01h15.45.795,Colour_Similarity_Experiment,2020.1.2,Win32,60,5fb5945709dec70f2d595766,,,,,,,,,,,,,,,,,,,,FF,,,,,,,,5,2.641905,,,,,,,,,,,,,,,,,,,,,,,,,,,,7,122,-51,1,0,0,response3disk,9,15,8,1,0,0,rectangle,15,8,1,0,0,6,5,"[260,151,153,292,168,216,221,274,21,110,59,265,208,51,71,159,8,252,291,46]",15,8,1,0,0,164,0,1,1,155,1,,,,,,,,,,,,,,,,,,,,,
,,,,,,,,,,,,,,,,,,,,,,,,,,,,,,,,,,,,,,,,,,,5ac56ef9fa3b4e0001737190,5fb5f1525434b8016d33ffbb,2020-11-19_01h15.45.795,Colour_Similarity_Experiment,2020.1.2,Win32,60,5fb5945709dec70f2d595766,,,,,,,,,,,,,,,,,,,,FF,,,,,,,,6,1.48404,,,,,,,,,,,,,,,,,,,,,,,,,,,,5,136,34,1,0,0,response1disk,6,17,-8,1,0,0,rectangle,17,-8,1,0,0,6,1,"[260,151,153,292,168,216,221,274,21,110,59,265,208,51,71,159,8,252,291,46]",17,-8,1,0,0,165,0,2,2,12,1,,,,,,,,,,,,,,,,,,,,,
,,,,,,,,,,,,,,,,,,,,,,,,,,,,,,,,,,,,,,,,,,,5ac56ef9fa3b4e0001737190,5fb5f1525434b8016d33ffbb,2020-11-19_01h15.45.795,Colour_Similarity_Experiment,2020.1.2,Win32,60,5fb5945709dec70f2d595766,,,,,,,,,,,,,,,,,,,,FF,,,,,,,,2,1.69405,,,,,,,,,,,,,,,,,,,,,,,,,,,,3,-102,-45,1,0,0,response5disk,4,1,2,1,0,0,rectangle,1,2,1,0,0,6,7,"[260,151,153,292,168,216,221,274,21,110,59,265,208,51,71,159,8,252,291,46]",1,2,1,0,0,166,0,3,3,110,1,,,,,,,,,,,,,,,,,,,,,
,,,,,,,,,,,,,,,,,,,,,,,,,,,,,,,,,,,,,,,,,,,5ac56ef9fa3b4e0001737190,5fb5f1525434b8016d33ffbb,2020-11-19_01h15.45.795,Colour_Similarity_Experiment,2020.1.2,Win32,60,5fb5945709dec70f2d595766,,,,,,,,,,,,,,,,,,,,PF,,,,,,,,7,1.715685,,,,,,,,,,,,,,,,,,,,,,,,,,,,3,56,100,1,0,0,response1disk,1,16,-4,1,0,0,rectangle,16,-4,1,0,0,6,3,"[260,151,153,292,168,216,221,274,21,110,59,265,208,51,71,159,8,252,291,46]",16,-4,1,0,0,167,0,4,4,96,1,,,,,,,,,,,,,,,,,,,,,
,,,,,,,,,,,,,,,,,,,,,,,,,,,,,,,,,,,,,,,,,,,5ac56ef9fa3b4e0001737190,5fb5f1525434b8016d33ffbb,2020-11-19_01h15.45.795,Colour_Similarity_Experiment,2020.1.2,Win32,60,5fb5945709dec70f2d595766,,,,,,,,,,,,,,,,,,,,PF,,,,,,,,6,2.15745,,,,,,,,,,,,,,,,,,,,,,,,,,,,6,109,46,1,0,0,response1disk,9,13,-5,1,0,0,rectangle,-26,-111,1,0,0,3,3,"[260,151,153,292,168,216,221,274,21,110,59,265,208,51,71,159,8,252,291,46]",0,12,1,0,0,168,0,5,5,45,1,response5disk_3,rectangle,,,,,,,,,,,,,,,,,,,
,,,,,,,,,,,,,,,,,,,,,,,,,,,,,,,,,,,,,,,,,,,5ac56ef9fa3b4e0001737190,5fb5f1525434b8016d33ffbb,2020-11-19_01h15.45.795,Colour_Similarity_Experiment,2020.1.2,Win32,60,5fb5945709dec70f2d595766,,,,,,,,,,,,,,,,,,,,PF,,,,,,,,2,1.486395,,,,,,,,,,,,,,,,,,,,,,,,,,,,1,-106,-63,1,0,0,response5disk,2,2,6,1,0,0,rectangle,2,6,1,0,0,3,1,"[260,151,153,292,168,216,221,274,21,110,59,265,208,51,71,159,8,252,291,46]",2,6,1,0,0,169,0,6,6,24,1,,,,,,,,,,,,,,,,,,,,,
,,,,,,,,,,,,,,,,,,,,,,,,,,,,,,,,,,,,,,,,,,,5ac56ef9fa3b4e0001737190,5fb5f1525434b8016d33ffbb,2020-11-19_01h15.45.795,Colour_Similarity_Experiment,2020.1.2,Win32,60,5fb5945709dec70f2d595766,,,,,,,,,,,,,,,,,,,,PF,,,,,,,,0,3.18979,,,,,,,,,,,,,,,,,,,,,,,,,,,,1,-57,94,1,0,0,response7disk,1,-7,8,1,0,0,rectangle,-7,8,1,0,0,3,2,"[260,151,153,292,168,216,221,274,21,110,59,265,208,51,71,159,8,252,291,46]",-7,8,1,0,0,170,0,7,7,76,1,,,,,,,,,,,,,,,,,,,,,
,,,,,,,,,,,,,,,,,,,,,,,,,,,,,,,,,,,,,,,,,,,5ac56ef9fa3b4e0001737190,5fb5f1525434b8016d33ffbb,2020-11-19_01h15.45.795,Colour_Similarity_Experiment,2020.1.2,Win32,60,5fb5945709dec70f2d595766,,,,,,,,,,,,,,,,,,,,FF,,,,,,,,7,1.073745,,,,,,,,,,,,,,,,,,,,,,,,,,,,1,58,103,1,0,0,response1disk,6,-7,2,1,0,0,rectangle,-7,2,1,0,0,3,7,"[260,151,153,292,168,216,221,274,21,110,59,265,208,51,71,159,8,252,291,46]",-7,2,1,0,0,171,0,8,8,58,1,,,,,,,,,,,,,,,,,,,,,
,,,,,,,,,,,,,,,,,,,,,,,,,,,,,,,,,,,,,,,,,,,5ac56ef9fa3b4e0001737190,5fb5f1525434b8016d33ffbb,2020-11-19_01h15.45.795,Colour_Similarity_Experiment,2020.1.2,Win32,60,5fb5945709dec70f2d595766,,,,,,,,,,,,,,,,,,,,FF,,,,,,,,5,2.55287,,,,,,,,,,,,,,,,,,,,,,,,,,,,9,122,-48,1,0,0,response3disk,5,13,-1,1,0,0,rectangle,13,-1,1,0,0,3,0,"[260,151,153,292,168,216,221,274,21,110,59,265,208,51,71,159,8,252,291,46]",13,-1,1,0,0,172,0,9,9,128,1,,,,,,,,,,,,,,,,,,,,,
,,,,,,,,,,,,,,,,,,,,,,,,,,,,,,,,,,,,,,,,,,,5ac56ef9fa3b4e0001737190,5fb5f1525434b8016d33ffbb,2020-11-19_01h15.45.795,Colour_Similarity_Experiment,2020.1.2,Win32,60,5fb5945709dec70f2d595766,,,,,,,,,,,,,,,,,,,,FF,,,,,,,,6,1.984565,,,,,,,,,,,,,,,,,,,,,,,,,,,,9,125,48,1,0,0,response1disk,7,28,-1,1,0,0,rectangle,28,-1,1,0,0,3,3,"[260,151,153,292,168,216,221,274,21,110,59,265,208,51,71,159,8,252,291,46]",28,-1,1,0,0,173,0,10,10,100,1,,,,,,,,,,,,,,,,,,,,,
,,,,,,,,,,,,,,,,,,,,,,,,,,,,,,,,,,,,,,,,,,,5ac56ef9fa3b4e0001737190,5fb5f1525434b8016d33ffbb,2020-11-19_01h15.45.795,Colour_Similarity_Experiment,2020.1.2,Win32,60,5fb5945709dec70f2d595766,,,,,,,,,,,,,,,,,,,,FF,,,,,,,,2,1.327595,,,,,,,,,,,,,,,,,,,,,,,,,,,,1,-160,-69,1,0,0,response5disk,9,-14,-5,1,0,0,rectangle,-14,-5,1,0,0,3,5,"[260,151,153,292,168,216,221,274,21,110,59,265,208,51,71,159,8,252,291,46]",-14,-5,1,0,0,174,0,11,11,123,1,,,,,,,,,,,,,,,,,,,,,
,,,,,,,,,,,,,,,,,,,,,,,,,,,,,,,,,,,,,,,,,,,5ac56ef9fa3b4e0001737190,5fb5f1525434b8016d33ffbb,2020-11-19_01h15.45.795,Colour_Similarity_Experiment,2020.1.2,Win32,60,5fb5945709dec70f2d595766,,,,,,,,,,,,,,,,,,,,FF,,,,,,,,2,1.66135,,,,,,,,,,,,,,,,,,,,,,,,,,,,8,-110,-70,1,0,0,response5disk,1,8,-3,1,0,0,rectangle,8,-3,1,0,0,3,5,"[260,151,153,292,168,216,221,274,21,110,59,265,208,51,71,159,8,252,291,46]",8,-3,1,0,0,175,0,12,12,20,1,,,,,,,,,,,,,,,,,,,,,
,,,,,,,,,,,,,,,,,,,,,,,,,,,,,,,,,,,,,,,,,,,5ac56ef9fa3b4e0001737190,5fb5f1525434b8016d33ffbb,2020-11-19_01h15.45.795,Colour_Similarity_Experiment,2020.1.2,Win32,60,5fb5945709dec70f2d595766,,,,,,,,,,,,,,,,,,,,FF,,,,,,,,3,2.16378,,,,,,,,,,,,,,,,,,,,,,,,,,,,8,-29,-86,1,0,0,response5disk,7,-4,17,1,0,0,rectangle,-4,17,1,0,0,3,3,"[260,151,153,292,168,216,221,274,21,110,59,265,208,51,71,159,8,252,291,46]",-4,17,1,0,0,176,0,13,13,86,1,,,,,,,,,,,,,,,,,,,,,
,,,,,,,,,,,,,,,,,,,,,,,,,,,,,,,,,,,,,,,,,,,5ac56ef9fa3b4e0001737190,5fb5f1525434b8016d33ffbb,2020-11-19_01h15.45.795,Colour_Similarity_Experiment,2020.1.2,Win32,60,5fb5945709dec70f2d595766,,,,,,,,,,,,,,,,,,,,FF,,,,,,,,2,1.387185,,,,,,,,,,,,,,,,,,,,,,,,,,,,9,-89,-30,1,0,0,response5disk,1,11,-3,1,0,0,rectangle,11,-3,1,0,0,3,6,"[260,151,153,292,168,216,221,274,21,110,59,265,208,51,71,159,8,252,291,46]",11,-3,1,0,0,177,0,14,14,111,1,,,,,,,,,,,,,,,,,,,,,
,,,,,,,,,,,,,,,,,,,,,,,,,,,,,,,,,,,,,,,,,,,5ac56ef9fa3b4e0001737190,5fb5f1525434b8016d33ffbb,2020-11-19_01h15.45.795,Colour_Similarity_Experiment,2020.1.2,Win32,60,5fb5945709dec70f2d595766,,,,,,,,,,,,,,,,,,,,PF,,,,,,,,7,1.397905,,,,,,,,,,,,,,,,,,,,,,,,,,,,1,56,91,1,0,0,response1disk,3,6,-11,1,0,0,rectangle,6,-11,1,0,0,3,3,"[260,151,153,292,168,216,221,274,21,110,59,265,208,51,71,159,8,252,291,46]",6,-11,1,0,0,178,0,15,15,1,1,,,,,,,,,,,,,,,,,,,,,
,,,,,,,,,,,,,,,,,,,,,,,,,,,,,,,,,,,,,,,,,,,5ac56ef9fa3b4e0001737190,5fb5f1525434b8016d33ffbb,2020-11-19_01h15.45.795,Colour_Similarity_Experiment,2020.1.2,Win32,60,5fb5945709dec70f2d595766,,,,,,,,,,,,,,,,,,,,PF,,,,,,,,4,2.269885,,,,,,,,,,,,,,,,,,,,,,,,,,,,3,70,-91,1,0,0,response3disk,6,7,-1,1,0,0,rectangle,7,-1,1,0,0,3,5,"[260,151,153,292,168,216,221,274,21,110,59,265,208,51,71,159,8,252,291,46]",7,-1,1,0,0,179,0,16,16,47,1,,,,,,,,,,,,,,,,,,,,,
,,,,,,,,,,,,,,,,,,,,,,,,,,,,,,,,,,,,,,,,,,,5ac56ef9fa3b4e0001737190,5fb5f1525434b8016d33ffbb,2020-11-19_01h15.45.795,Colour_Similarity_Experiment,2020.1.2,Win32,60,5fb5945709dec70f2d595766,,,,,,,,,,,,,,,,,,,,PF,,,,,,,,4,1.543525,,,,,,,,,,,,,,,,,,,,,,,,,,,,7,61,-86,1,0,0,response3disk,8,6,0,1,0,0,rectangle,6,0,1,0,0,3,6,"[260,151,153,292,168,216,221,274,21,110,59,265,208,51,71,159,8,252,291,46]",6,0,1,0,0,180,0,17,17,140,1,,,,,,,,,,,,,,,,,,,,,
,,,,,,,,,,,,,,,,,,,,,,,,,,,,,,,,,,,,,,,,,,,5ac56ef9fa3b4e0001737190,5fb5f1525434b8016d33ffbb,2020-11-19_01h15.45.795,Colour_Similarity_Experiment,2020.1.2,Win32,60,5fb5945709dec70f2d595766,,,,,,,,,,,,,,,,,,,,PF,,,,,,,,2,1.192925,,,,,,,,,,,,,,,,,,,,,,,,,,,,2,-83,-47,1,0,0,response5disk,1,7,-1,1,0,0,rectangle,7,-1,1,0,0,3,1,"[260,151,153,292,168,216,221,274,21,110,59,265,208,51,71,159,8,252,291,46]",7,-1,1,0,0,181,0,18,18,9,1,,,,,,,,,,,,,,,,,,,,,
,,,,,,,,,,,,,,,,,,,,,,,,,,,,,,,,,,,,,,,,,,,5ac56ef9fa3b4e0001737190,5fb5f1525434b8016d33ffbb,2020-11-19_01h15.45.795,Colour_Similarity_Experiment,2020.1.2,Win32,60,5fb5945709dec70f2d595766,,,,,,,,,,,,,,,,,,,,FF,,,,,,,,6,1.795365,,,,,,,,,,,,,,,,,,,,,,,,,,,,5,88,46,1,0,0,response1disk,8,8,0,1,0,0,rectangle,8,0,1,0,0,3,7,"[260,151,153,292,168,216,221,274,21,110,59,265,208,51,71,159,8,252,291,46]",8,0,1,0,0,182,0,19,19,16,1,,,,,,,,,,,,,,,,,,,,,
,,,,,,,,,,,,,,,,,,,,,,,,,,,,,,,,,,,,,,,,,,,5ac56ef9fa3b4e0001737190,5fb5f1525434b8016d33ffbb,2020-11-19_01h15.45.795,Colour_Similarity_Experiment,2020.1.2,Win32,60,5fb5945709dec70f2d595766,,,,,,,,,,,,,,,,,,,,FF,,,,,,,,5,1.450045,,,,,,,,,,,,,,,,,,,,,,,,,,,,6,91,-38,1,0,0,response3disk,8,8,5,1,0,0,rectangle,8,5,1,0,0,3,1,"[260,151,153,292,168,216,221,274,21,110,59,265,208,51,71,159,8,252,291,46]",8,5,1,0,0,183,0,20,20,133,1,,,,,,,,,,,,,,,,,,,,,
,,,,,,,,,,,,,,,,,,,,,,,,,,,,,,,,,,,,,,,,,,,5ac56ef9fa3b4e0001737190,5fb5f1525434b8016d33ffbb,2020-11-19_01h15.45.795,Colour_Similarity_Experiment,2020.1.2,Win32,60,5fb5945709dec70f2d595766,,,,,,,,,,,,,,,,,,,,FF,,,,,,,,5,1.576,,,,,,,,,,,,,,,,,,,,,,,,,,,,2,93,-53,1,0,0,response3disk,9,12,-7,1,0,0,rectangle,12,-7,1,0,0,3,1,"[260,151,153,292,168,216,221,274,21,110,59,265,208,51,71,159,8,252,291,46]",12,-7,1,0,0,184,0,21,21,72,1,,,,,,,,,,,,,,,,,,,,,
,,,,,,,,,,,,,,,,,,,,,,,,,,,,,,,,,,,,,,,,,,,5ac56ef9fa3b4e0001737190,5fb5f1525434b8016d33ffbb,2020-11-19_01h15.45.795,Colour_Similarity_Experiment,2020.1.2,Win32,60,5fb5945709dec70f2d595766,,,,,,,,,,,,,,,,,,,,FF,,,,,,,,2,2.56878,,,,,,,,,,,,,,,,,,,,,,,,,,,,9,-104,-59,1,0,0,response5disk,8,-11,-2,1,0,0,rectangle,-11,-2,1,0,0,3,1,"[260,151,153,292,168,216,221,274,21,110,59,265,208,51,71,159,8,252,291,46]",-11,-2,1,0,0,185,0,22,22,6,1,,,,,,,,,,,,,,,,,,,,,
,,,,,,,,,,,,,,,,,,,,,,,,,,,,,,,,,,,,,,,,,,,5ac56ef9fa3b4e0001737190,5fb5f1525434b8016d33ffbb,2020-11-19_01h15.45.795,Colour_Similarity_Experiment,2020.1.2,Win32,60,5fb5945709dec70f2d595766,,,,,,,,,,,,,,,,,,,,PF,,,,,,,,2,1.946905,,,,,,,,,,,,,,,,,,,,,,,,,,,,4,-99,-72,1,0,0,response5disk,5,-3,-5,1,0,0,rectangle,-3,-5,1,0,0,3,7,"[260,151,153,292,168,216,221,274,21,110,59,265,208,51,71,159,8,252,291,46]",-3,-5,1,0,0,186,0,23,23,49,1,,,,,,,,,,,,,,,,,,,,,
,,,,,,,,,,,,,,,,,,,,,,,,,,,,,,,,,,,,,,,,,,,5ac56ef9fa3b4e0001737190,5fb5f1525434b8016d33ffbb,2020-11-19_01h15.45.795,Colour_Similarity_Experiment,2020.1.2,Win32,60,5fb5945709dec70f2d595766,,,,,,,,,,,,,,,,,,,,FF,,,,,,,,0,1.298045,,,,,,,,,,,,,,,,,,,,,,,,,,,,1,-47,107,1,0,0,response7disk,1,-3,6,1,0,0,rectangle,-3,6,1,0,0,3,1,"[260,151,153,292,168,216,221,274,21,110,59,265,208,51,71,159,8,252,291,46]",-3,6,1,0,0,187,0,24,24,151,1,,,,,,,,,,,,,,,,,,,,,
,,,,,,,,,,,,,,,,,,,,,,,,,,,,,,,,,,,,,,,,,,,5ac56ef9fa3b4e0001737190,5fb5f1525434b8016d33ffbb,2020-11-19_01h15.45.795,Colour_Similarity_Experiment,2020.1.2,Win32,60,5fb5945709dec70f2d595766,,,,,,,,,,,,,,,,,,,,FF,,,,,,,,7,0.9931,,,,,,,,,,,,,,,,,,,,,,,,,,,,7,46,98,1,0,0,response1disk,1,1,-4,1,0,0,rectangle,1,-4,1,0,0,3,2,"[260,151,153,292,168,216,221,274,21,110,59,265,208,51,71,159,8,252,291,46]",1,-4,1,0,0,188,0,25,25,132,1,,,,,,,,,,,,,,,,,,,,,
,,,,,,,,,,,,,,,,,,,,,,,,,,,,,,,,,,,,,,,,,,,5ac56ef9fa3b4e0001737190,5fb5f1525434b8016d33ffbb,2020-11-19_01h15.45.795,Colour_Similarity_Experiment,2020.1.2,Win32,60,5fb5945709dec70f2d595766,,,,,,,,,,,,,,,,,,,,PF,,,,,,,,6,2.28522,,,,,,,,,,,,,,,,,,,,,,,,,,,,5,141,62,1,0,0,response1disk,2,23,-2,1,0,0,rectangle,23,-2,1,0,0,3,0,"[260,151,153,292,168,216,221,274,21,110,59,265,208,51,71,159,8,252,291,46]",23,-2,1,0,0,189,0,26,26,129,1,,,,,,,,,,,,,,,,,,,,,
,,,,,,,,,,,,,,,,,,,,,,,,,,,,,,,,,,,,,,,,,,,5ac56ef9fa3b4e0001737190,5fb5f1525434b8016d33ffbb,2020-11-19_01h15.45.795,Colour_Similarity_Experiment,2020.1.2,Win32,60,5fb5945709dec70f2d595766,,,,,,,,,,,,,,,,,,,,FF,,,,,,,,6,1.40749,,,,,,,,,,,,,,,,,,,,,,,,,,,,3,114,40,1,0,0,response1disk,2,20,-5,1,0,0,rectangle,20,-5,1,0,0,3,1,"[260,151,153,292,168,216,221,274,21,110,59,265,208,51,71,159,8,252,291,46]",20,-5,1,0,0,190,0,27,27,93,1,,,,,,,,,,,,,,,,,,,,,
,,,,,,,,,,,,,,,,,,,,,,,,,,,,,,,,,,,,,,,,,,,5ac56ef9fa3b4e0001737190,5fb5f1525434b8016d33ffbb,2020-11-19_01h15.45.795,Colour_Similarity_Experiment,2020.1.2,Win32,60,5fb5945709dec70f2d595766,,,,,,,,,,,,,,,,,,,,FF,,,,,,,,6,1.5742,,,,,,,,,,,,,,,,,,,,,,,,,,,,5,124,43,1,0,0,response1disk,2,24,0,1,0,0,rectangle,24,0,1,0,0,3,6,"[260,151,153,292,168,216,221,274,21,110,59,265,208,51,71,159,8,252,291,46]",24,0,1,0,0,191,0,28,28,55,1,,,,,,,,,,,,,,,,,,,,,
,,,,,,,,,,,,,,,,,,,,,,,,,,,,,,,,,,,,,,,,,,,5ac56ef9fa3b4e0001737190,5fb5f1525434b8016d33ffbb,2020-11-19_01h15.45.795,Colour_Similarity_Experiment,2020.1.2,Win32,60,5fb5945709dec70f2d595766,,,,,,,,,,,,,,,,,,,,FF,,,,,,,,3,1.811675,,,,,,,,,,,,,,,,,,,,,,,,,,,,6,-52,-123,1,0,0,response5disk,4,-2,-8,1,0,0,rectangle,-2,-8,1,0,0,3,5,"[260,151,153,292,168,216,221,274,21,110,59,265,208,51,71,159,8,252,291,46]",-2,-8,1,0,0,192,0,29,29,56,1,,,,,,,,,,,,,,,,,,,,,
,,,,,,,,,,,,,,,,,,,,,,,,,,,,,,,,,,,,,,,,,,,5ac56ef9fa3b4e0001737190,5fb5f1525434b8016d33ffbb,2020-11-19_01h15.45.795,Colour_Similarity_Experiment,2020.1.2,Win32,60,5fb5945709dec70f2d595766,,,,,,,,,,,,,,,,,,,,FF,,,,,,,,7,0.95088,,,,,,,,,,,,,,,,,,,,,,,,,,,,4,67,98,1,0,0,response1disk,1,-11,-2,1,0,0,rectangle,-11,-2,1,0,0,3,5,"[260,151,153,292,168,216,221,274,21,110,59,265,208,51,71,159,8,252,291,46]",-11,-2,1,0,0,193,0,30,30,102,1,,,,,,,,,,,,,,,,,,,,,
,,,,,,,,,,,,,,,,,,,,,,,,,,,,,,,,,,,,,,,,,,,5ac56ef9fa3b4e0001737190,5fb5f1525434b8016d33ffbb,2020-11-19_01h15.45.795,Colour_Similarity_Experiment,2020.1.2,Win32,60,5fb5945709dec70f2d595766,,,,,,,,,,,,,,,,,,,,PF,,,,,,,,5,2.646195,,,,,,,,,,,,,,,,,,,,,,,,,,,,2,107,-72,1,0,0,response3disk,9,4,-10,1,0,0,rectangle,4,-10,1,0,0,3,6,"[260,151,153,292,168,216,221,274,21,110,59,265,208,51,71,159,8,252,291,46]",4,-10,1,0,0,194,0,31,31,39,1,,,,,,,,,,,,,,,,,,,,,
,,,,,,,,,,,,,,,,,,,,,,,,,,,,,,,,,,,,,,,,,,,5ac56ef9fa3b4e0001737190,5fb5f1525434b8016d33ffbb,2020-11-19_01h15.45.795,Colour_Similarity_Experiment,2020.1.2,Win32,60,5fb5945709dec70f2d595766,,,,,,,,,,,,,,,,,,,,PF,,,,,,,,4,3.818575,,,,,,,,,,,,,,,,,,,,,,,,,,,,9,67,-112,1,0,0,response3disk,7,7,-16,1,0,0,rectangle,7,-16,1,0,0,3,0,"[260,151,153,292,168,216,221,274,21,110,59,265,208,51,71,159,8,252,291,46]",7,-16,1,0,0,195,0,32,32,121,1,,,,,,,,,,,,,,,,,,,,,
,,,,,,,,,,,,,,,,,,,,,,,,,,,,,,,,,,,,,,,,,,,5ac56ef9fa3b4e0001737190,5fb5f1525434b8016d33ffbb,2020-11-19_01h15.45.795,Colour_Similarity_Experiment,2020.1.2,Win32,60,5fb5945709dec70f2d595766,,,,,,,,,,,,,,,,,,,,PF,,,,,,,,2,1.655695,,,,,,,,,,,,,,,,,,,,,,,,,,,,5,-116,-53,1,0,0,response5disk,6,7,2,1,0,0,rectangle,7,2,1,0,0,3,5,"[260,151,153,292,168,216,221,274,21,110,59,265,208,51,71,159,8,252,291,46]",7,2,1,0,0,196,0,33,33,103,1,,,,,,,,,,,,,,,,,,,,,
,,,,,,,,,,,,,,,,,,,,,,,,,,,,,,,,,,,,,,,,,,,5ac56ef9fa3b4e0001737190,5fb5f1525434b8016d33ffbb,2020-11-19_01h15.45.795,Colour_Similarity_Experiment,2020.1.2,Win32,60,5fb5945709dec70f2d595766,,,,,,,,,,,,,,,,,,,,FF,,,,,,,,7,2.485775,,,,,,,,,,,,,,,,,,,,,,,,,,,,7,32,98,1,0,0,response1disk,2,-14,2,1,0,0,rectangle,-14,2,1,0,0,3,1,"[260,151,153,292,168,216,221,274,21,110,59,265,208,51,71,159,8,252,291,46]",-14,2,1,0,0,197,0,34,34,138,1,,,,,,,,,,,,,,,,,,,,,
,,,,,,,,,,,,,,,,,,,,,,,,,,,,,,,,,,,,,,,,,,,5ac56ef9fa3b4e0001737190,5fb5f1525434b8016d33ffbb,2020-11-19_01h15.45.795,Colour_Similarity_Experiment,2020.1.2,Win32,60,5fb5945709dec70f2d595766,,,,,,,,,,,,,,,,,,,,FF,,,,,,,,7,2.390165,,,,,,,,,,,,,,,,,,,,,,,,,,,,4,56,88,1,0,0,response1disk,8,-10,-4,1,0,0,rectangle,-10,-4,1,0,0,3,6,"[260,151,153,292,168,216,221,274,21,110,59,265,208,51,71,159,8,252,291,46]",-10,-4,1,0,0,198,0,35,35,35,1,,,,,,,,,,,,,,,,,,,,,
,,,,,,,,,,,,,,,,,,,,,,,,,,,,,,,,,,,,,,,,,,,5ac56ef9fa3b4e0001737190,5fb5f1525434b8016d33ffbb,2020-11-19_01h15.45.795,Colour_Similarity_Experiment,2020.1.2,Win32,60,5fb5945709dec70f2d595766,,,,,,,,,,,,,,,,,,,,FF,,,,,,,,7,0.91908,,,,,,,,,,,,,,,,,,,,,,,,,,,,1,51,97,1,0,0,response1disk,4,6,-6,1,0,0,rectangle,6,-6,1,0,0,3,4,"[260,151,153,292,168,216,221,274,21,110,59,265,208,51,71,159,8,252,291,46]",6,-6,1,0,0,199,0,36,36,135,1,,,,,,,,,,,,,,,,,,,,,
,,,,,,,,,,,,,,,,,,,,,,,,,,,,,,,,,,,,,,,,,,,5ac56ef9fa3b4e0001737190,5fb5f1525434b8016d33ffbb,2020-11-19_01h15.45.795,Colour_Similarity_Experiment,2020.1.2,Win32,60,5fb5945709dec70f2d595766,,,,,,,,,,,,,,,,,,,,FF,,,,,,,,7,1.24081,,,,,,,,,,,,,,,,,,,,,,,,,,,,1,52,105,1,0,0,response1disk,3,16,-1,1,0,0,rectangle,16,-1,1,0,0,3,5,"[260,151,153,292,168,216,221,274,21,110,59,265,208,51,71,159,8,252,291,46]",16,-1,1,0,0,200,0,37,37,99,1,,,,,,,,,,,,,,,,,,,,,
,,,,,,,,,,,,,,,,,,,,,,,,,,,,,,,,,,,,,,,,,,,5ac56ef9fa3b4e0001737190,5fb5f1525434b8016d33ffbb,2020-11-19_01h15.45.795,Colour_Similarity_Experiment,2020.1.2,Win32,60,5fb5945709dec70f2d595766,,,,,,,,,,,,,,,,,,,,FF,,,,,,,,6,3.310755,,,,,,,,,,,,,,,,,,,,,,,,,,,,9,136,41,1,0,0,response1disk,2,8,-6,1,0,0,rectangle,8,-6,1,0,0,3,0,"[260,151,153,292,168,216,221,274,21,110,59,265,208,51,71,159,8,252,291,46]",8,-6,1,0,0,201,0,38,38,11,1,,,,,,,,,,,,,,,,,,,,,
,,,,,,,,,,,,,,,,,,,,,,,,,,,,,,,,,,,,,,,,,,,5ac56ef9fa3b4e0001737190,5fb5f1525434b8016d33ffbb,2020-11-19_01h15.45.795,Colour_Similarity_Experiment,2020.1.2,Win32,60,5fb5945709dec70f2d595766,,,,,,,,,,,,,,,,,,,,PF,,,,,,,,7,2.409445,,,,,,,,,,,,,,,,,,,,,,,,,,,,2,71,102,1,0,0,response1disk,5,1,2,1,0,0,rectangle,1,2,1,0,0,3,5,"[260,151,153,292,168,216,221,274,21,110,59,265,208,51,71,159,8,252,291,46]",1,2,1,0,0,202,0,39,39,147,1,,,,,,,,,,,,,,,,,,,,,
,,,,,,,,,,,,,,,,,,,,,,,,,,,,,,,,,,,,,,,,,,,5ac56ef9fa3b4e0001737190,5fb5f1525434b8016d33ffbb,2020-11-19_01h15.45.795,Colour_Similarity_Experiment,2020.1.2,Win32,60,5fb5945709dec70f2d595766,,,,,,,,,,,,,,,,,,,,FF,,,,,,,,6,1.657695,,,,,,,,,,,,,,,,,,,,,,,,,,,,9,147,53,1,0,0,response1disk,6,-12,0,1,0,0,rectangle,-12,0,1,0,0,3,1,"[260,151,153,292,168,216,221,274,21,110,59,265,208,51,71,159,8,252,291,46]",-12,0,1,0,0,203,0,40,40,117,1,,,,,,,,,,,,,,,,,,,,,
,,,,,,,,,,,,,,,,,,,,,,,,,,,,,,,,,,,,,,,,,,,5ac56ef9fa3b4e0001737190,5fb5f1525434b8016d33ffbb,2020-11-19_01h15.45.795,Colour_Similarity_Experiment,2020.1.2,Win32,60,5fb5945709dec70f2d595766,,,,,,,,,,,,,,,,,,,,PF,,,,,,,,7,1.17734,,,,,,,,,,,,,,,,,,,,,,,,,,,,7,60,106,1,0,0,response1disk,3,4,-8,1,0,0,rectangle,4,-8,1,0,0,3,6,"[260,151,153,292,168,216,221,274,21,110,59,265,208,51,71,159,8,252,291,46]",4,-8,1,0,0,204,0,41,41,81,1,,,,,,,,,,,,,,,,,,,,,
,,,,,,,,,,,,,,,,,,,,,,,,,,,,,,,,,,,,,,,,,,,5ac56ef9fa3b4e0001737190,5fb5f1525434b8016d33ffbb,2020-11-19_01h15.45.795,Colour_Similarity_Experiment,2020.1.2,Win32,60,5fb5945709dec70f2d595766,,,,,,,,,,,,,,,,,,,,FF,,,,,,,,4,1.901655,,,,,,,,,,,,,,,,,,,,,,,,,,,,8,66,-101,1,0,0,response3disk,9,10,-10,1,0,0,rectangle,10,-10,1,0,0,3,0,"[260,151,153,292,168,216,221,274,21,110,59,265,208,51,71,159,8,252,291,46]",10,-10,1,0,0,205,0,42,42,105,1,,,,,,,,,,,,,,,,,,,,,
