key_resp.keys,key_resp.rt,key_resp_16.keys,key_resp_16.rt,key_resp_2.keys,key_resp_2.rt,X Scale,ratio_pxpermm,screen_size_x,screen_size_y,testsize,key_resp_3.keys,key_resp_3.rt,key_resp_4.keys,key_resp_4.rt,line_size,key_resp_5.keys,key_resp_5.rt,key_resp_6.keys,key_resp_6.rt,key_resp_8.keys,key_resp_8.rt,key_resp_7.keys,key_resp_7.rt,key_resp_12.keys,key_resp_12.rt,key_resp_11.keys,key_resp_11.rt,key_resp_18.keys,key_resp_18.rt,key_resp_21.keys,key_resp_21.rt,key_resp_13.keys,key_resp_13.rt,key_resp_19.keys,key_resp_19.rt,ballposx,viewer_distance,trials.thisRepN,trials.thisTrialN,trials.thisN,trials.thisIndex,trials.ran,participant,session,date,expName,psychopyVersion,OS,frameRate,study_id,viewerdistancecm,DVA_to_distance,radius_F,radius_P,r_F,R_P,key_resp_20.keys,key_resp_20.rt,key_resp_14.keys,key_resp_14.rt,key_resp_15.keys,key_resp_15.rt,key_resp_17.keys,key_resp_17.rt,key_resp_9.keys,key_resp_9.rt,key_resp_10.keys,key_resp_10.rt,Colour_1,Ecc,mouse_5.x,mouse_5.y,mouse_5.leftButton,mouse_5.midButton,mouse_5.rightButton,mouse_5.clicked_name,Colour_2,similarity,response_time,mouse_10.x,mouse_10.y,mouse_10.leftButton,mouse_10.midButton,mouse_10.rightButton,mouse_10.clicked_name,mouse_7.x,mouse_7.y,mouse_7.leftButton,mouse_7.midButton,mouse_7.rightButton,catchnumberprac,mouse_6.x,mouse_6.y,mouse_6.leftButton,mouse_6.midButton,mouse_6.rightButton,duringprac.thisRepN,duringprac.thisTrialN,duringprac.thisN,duringprac.thisIndex,duringprac.ran,mouse_7.clicked_name,catchprac,mouse_6.clicked_name,key_resp_22.keys,key_resp_22.rt,Colour1,mouse.x,mouse.y,mouse.leftButton,mouse.midButton,mouse.rightButton,mouse.clicked_name,Colour2,mouse_2.x,mouse_2.y,mouse_2.leftButton,mouse_2.midButton,mouse_2.rightButton,mouse_2.clicked_name,mouse_3.x,mouse_3.y,mouse_3.leftButton,mouse_3.midButton,mouse_3.rightButton,catchresponse,catchnumber,catchtrialorder,mouse_11.x,mouse_11.y,mouse_11.leftButton,mouse_11.midButton,mouse_11.rightButton,trials_2.thisRepN,trialnumber,trials_2.thisTrialN,trials_2.thisN,trials_2.thisIndex,trials_2.ran,mouse_3.clicked_name,mouse_11.clicked_name,trials_3.thisRepN,trials_3.thisTrialN,trials_3.thisN,trials_3.thisIndex,trials_3.ran,answer1,rt1,answer2,rt2,answer3,rt3,answer4,rt4,answer5,rt5,answer6,rt6,answer7,rt7
space,5.031,space,55.223,space,7.981,45.7,4.57,336.1050328,189.059081,1536,space,40.897,space,15.156,91.4,space,12.114,space,30.212,space,3.332,space,9.347,space,7.813,space,11.597,space,12.318,space,17.252,space,18.779,return,5.019,-25.344,583.0911434,0,0,0,0,1,5b2b03070ec82d0001d28898,5fb5d9ff8341131d1550ecf4,2020-11-18_23h36.36.213,Colour_Similarity_Experiment,2020.1.2,Win32,60,5fb5945709dec70f2d595766,,,,,,,,,,,,,,,,,,,,,,,,,,,,,,,,,,,,,,,,,,,,,,,,,,,,,,,,,,,,,,,,,,,,,,,,,,,,,,,,,,,,,,,,,,,,,,,,,,,,,,,,,,,,,,
,,,,,,,,,,,,,,,,,,,,,,,,,,,,,,,,,,return,5.231,-41.472,597.7909201,1,0,1,0,1,5b2b03070ec82d0001d28898,5fb5d9ff8341131d1550ecf4,2020-11-18_23h36.36.213,Colour_Similarity_Experiment,2020.1.2,Win32,60,5fb5945709dec70f2d595766,,,,,,,,,,,,,,,,,,,,,,,,,,,,,,,,,,,,,,,,,,,,,,,,,,,,,,,,,,,,,,,,,,,,,,,,,,,,,,,,,,,,,,,,,,,,,,,,,,,,,,,,,,,,,,
,,,,,,,,,,,,,,,,,,,,,,,,,,,,,,,,,,return,5.047,-52.992,608.2907606,2,0,2,0,1,5b2b03070ec82d0001d28898,5fb5d9ff8341131d1550ecf4,2020-11-18_23h36.36.213,Colour_Similarity_Experiment,2020.1.2,Win32,60,5fb5945709dec70f2d595766,,,,,,,,,,,,,,,,,,,,,,,,,,,,,,,,,,,,,,,,,,,,,,,,,,,,,,,,,,,,,,,,,,,,,,,,,,,,,,,,,,,,,,,,,,,,,,,,,,,,,,,,,,,,,,
,,,,,,,,,,,,,,,,,,,,,,,,,,,,,,,,,,return,4.578,-46.08,601.9908563,3,0,3,0,1,5b2b03070ec82d0001d28898,5fb5d9ff8341131d1550ecf4,2020-11-18_23h36.36.213,Colour_Similarity_Experiment,2020.1.2,Win32,60,5fb5945709dec70f2d595766,,,,,,,,,,,,,,,,,,,,,,,,,,,,,,,,,,,,,,,,,,,,,,,,,,,,,,,,,,,,,,,,,,,,,,,,,,,,,,,,,,,,,,,,,,,,,,,,,,,,,,,,,,,,,,
,,,,,,,,,,,,,,,,,,,,,,,,,,,,,,,,,,return,4.888,2.304,557.8915261,4,0,4,0,1,5b2b03070ec82d0001d28898,5fb5d9ff8341131d1550ecf4,2020-11-18_23h36.36.213,Colour_Similarity_Experiment,2020.1.2,Win32,60,5fb5945709dec70f2d595766,,,,,,,,,,,,,,,,,,,,,,,,,,,,,,,,,,,,,,,,,,,,,,,,,,,,,,,,,,,,,,,,,,,,,,,,,,,,,,,,,,,,,,,,,,,,,,,,,,,,,,,,,,,,,,
,,,,,,,,,,,,,,,,,,,,,,,,,,,,,,,,,,,,,,,,,,,5b2b03070ec82d0001d28898,5fb5d9ff8341131d1550ecf4,2020-11-18_23h36.36.213,Colour_Similarity_Experiment,2020.1.2,Win32,60,5fb5945709dec70f2d595766,59,10.29848462,70.5961121,470.6407473,47.06407473,211.7883363,space,4.964,space,17.774,space,38.723,space,22.642,space,12.491,space,4.552,4,FF,33,74,1,0,0,response1disk_5,9,7,9.405,-2,2,1,0,0,rectangle_8,-2,2,1,0,0,3,-2,2,1,0,0,0,0,0,0,1,,,,,,,,,,,,,,,,,,,,,,,,,,,,,,,,,,,,,,,,,,,,,,,,,,,,,,,,,,,
,,,,,,,,,,,,,,,,,,,,,,,,,,,,,,,,,,,,,,,,,,,5b2b03070ec82d0001d28898,5fb5d9ff8341131d1550ecf4,2020-11-18_23h36.36.213,Colour_Similarity_Experiment,2020.1.2,Win32,60,5fb5945709dec70f2d595766,,,,,,,,,,,,,,,,,,,8,FF,36,-82,1,0,0,response3disk_5,6,4,21.749,2,0,1,0,0,rectangle_8,-50,-85,1,0,0,3,-10,3,1,0,0,0,1,1,3,1,response5disk_7,3,rectangle_4,,,,,,,,,,,,,,,,,,,,,,,,,,,,,,,,,,,,,,,,,,,,,,,,,,,,,,,,
,,,,,,,,,,,,,,,,,,,,,,,,,,,,,,,,,,,,,,,,,,,5b2b03070ec82d0001d28898,5fb5d9ff8341131d1550ecf4,2020-11-18_23h36.36.213,Colour_Similarity_Experiment,2020.1.2,Win32,60,5fb5945709dec70f2d595766,,,,,,,,,,,,,,,,,,,3,PF,-89,26,1,0,0,response7disk_5,4,1,18.374,7,0,1,0,0,rectangle_8,7,0,1,0,0,3,7,0,1,0,0,0,2,2,4,1,,,,,,,,,,,,,,,,,,,,,,,,,,,,,,,,,,,,,,,,,,,,,,,,,,,,,,,,,,,
,,,,,,,,,,,,,,,,,,,,,,,,,,,,,,,,,,,,,,,,,,,5b2b03070ec82d0001d28898,5fb5d9ff8341131d1550ecf4,2020-11-18_23h36.36.213,Colour_Similarity_Experiment,2020.1.2,Win32,60,5fb5945709dec70f2d595766,,,,,,,,,,,,,,,,,,,2,PF,-72,44,1,0,0,response7disk_5,2,1,5.98,7,1,1,0,0,rectangle_8,7,1,1,0,0,3,7,1,1,0,0,0,3,3,1,1,,,,,,,,,,,,,,,,,,,,,,,,,,,,,,,,,,,,,,,,,,,,,,,,,,,,,,,,,,,
,,,,,,,,,,,,,,,,,,,,,,,,,,,,,,,,,,,,,,,,,,,5b2b03070ec82d0001d28898,5fb5d9ff8341131d1550ecf4,2020-11-18_23h36.36.213,Colour_Similarity_Experiment,2020.1.2,Win32,60,5fb5945709dec70f2d595766,,,,,,,,,,,,,,,,,,,9,PF,50,68,1,0,0,response1disk_5,3,7,4.866,10,-2,1,0,0,rectangle_8,10,-2,1,0,0,3,10,-2,1,0,0,0,4,4,2,1,,,,,,,,,,,,,,,,,,,,,,,,,,,,,,,,,,,,,,,,,,,,,,,,,,,,,,,,,,,
,,,,,,,,,,,,,,,,,,,,,,,,,,,,,,,,,,,,,,,,,,,5b2b03070ec82d0001d28898,5fb5d9ff8341131d1550ecf4,2020-11-18_23h36.36.213,Colour_Similarity_Experiment,2020.1.2,Win32,60,5fb5945709dec70f2d595766,,,,,,,,,,,,,,,,,,,4,PF,53,79,1,0,0,response1disk_5,1,7,7.866,-2,0,1,0,0,rectangle_8,-2,0,1,0,0,3,-2,0,1,0,0,0,5,5,6,1,,,,,,,,,,,,,,,,,,,,,,,,,,,,,,,,,,,,,,,,,,,,,,,,,,,,,,,,,,,
,,,,,,,,,,,,,,,,,,,,,,,,,,,,,,,,,,,,,,,,,,,5b2b03070ec82d0001d28898,5fb5d9ff8341131d1550ecf4,2020-11-18_23h36.36.213,Colour_Similarity_Experiment,2020.1.2,Win32,60,5fb5945709dec70f2d595766,,,,,,,,,,,,,,,,,,,6,FF,-44,-87,1,0,0,response5disk_5,5,3,6.166,11,6,1,0,0,rectangle_8,11,6,1,0,0,3,11,6,1,0,0,0,6,6,5,1,,,,,,,,,,,,,,,,,,,,,,,,,,,,,,,,,,,,,,,,,,,,,,,,,,,,,,,,,,,
,,,,,,,,,,,,,,,,,,,,,,,,,,,,,,,,,,,,,,,,,,,5b2b03070ec82d0001d28898,5fb5d9ff8341131d1550ecf4,2020-11-18_23h36.36.213,Colour_Similarity_Experiment,2020.1.2,Win32,60,5fb5945709dec70f2d595766,,,,,,,,,,,,,,,,,,,,PF,,,,,,,,2,4.751,,,,,,,,,,,,,,,,,,,,,,,,,,space,4.184,4,-75,-37,1,0,0,response5disk,3,4,1,1,0,0,rectangle,4,1,1,0,0,,1,"[144,66,198,304,162,26,176,248,142,139,248,171,153,288,34,134,235,166,189,41]",4,1,1,0,0,0,1,0,0,89,1,,,,,,,,,,,,,,,,,,,,,
,,,,,,,,,,,,,,,,,,,,,,,,,,,,,,,,,,,,,,,,,,,5b2b03070ec82d0001d28898,5fb5d9ff8341131d1550ecf4,2020-11-18_23h36.36.213,Colour_Similarity_Experiment,2020.1.2,Win32,60,5fb5945709dec70f2d595766,,,,,,,,,,,,,,,,,,,,PF,,,,,,,,5,7.897,,,,,,,,,,,,,,,,,,,,,,,,,,,,4,92,-50,1,0,0,response3disk,2,-4,2,1,0,0,rectangle,-4,2,1,0,0,,5,"[144,66,198,304,162,26,176,248,142,139,248,171,153,288,34,134,235,166,189,41]",-4,2,1,0,0,0,2,1,1,108,1,,,,,,,,,,,,,,,,,,,,,
,,,,,,,,,,,,,,,,,,,,,,,,,,,,,,,,,,,,,,,,,,,5b2b03070ec82d0001d28898,5fb5d9ff8341131d1550ecf4,2020-11-18_23h36.36.213,Colour_Similarity_Experiment,2020.1.2,Win32,60,5fb5945709dec70f2d595766,,,,,,,,,,,,,,,,,,,,FF,,,,,,,,4,4.448,,,,,,,,,,,,,,,,,,,,,,,,,,,,4,25,-72,1,0,0,response3disk,5,-7,-9,1,0,0,rectangle,-7,-9,1,0,0,,5,"[144,66,198,304,162,26,176,248,142,139,248,171,153,288,34,134,235,166,189,41]",-7,-9,1,0,0,0,3,2,2,116,1,,,,,,,,,,,,,,,,,,,,,
,,,,,,,,,,,,,,,,,,,,,,,,,,,,,,,,,,,,,,,,,,,5b2b03070ec82d0001d28898,5fb5d9ff8341131d1550ecf4,2020-11-18_23h36.36.213,Colour_Similarity_Experiment,2020.1.2,Win32,60,5fb5945709dec70f2d595766,,,,,,,,,,,,,,,,,,,,PF,,,,,,,,6,1.936,,,,,,,,,,,,,,,,,,,,,,,,,,,,4,100,23,1,0,0,response1disk,7,12,0,1,0,0,rectangle,12,0,1,0,0,,0,"[144,66,198,304,162,26,176,248,142,139,248,171,153,288,34,134,235,166,189,41]",12,0,1,0,0,0,4,3,3,38,1,,,,,,,,,,,,,,,,,,,,,
,,,,,,,,,,,,,,,,,,,,,,,,,,,,,,,,,,,,,,,,,,,5b2b03070ec82d0001d28898,5fb5d9ff8341131d1550ecf4,2020-11-18_23h36.36.213,Colour_Similarity_Experiment,2020.1.2,Win32,60,5fb5945709dec70f2d595766,,,,,,,,,,,,,,,,,,,,PF,,,,,,,,7,4.384,,,,,,,,,,,,,,,,,,,,,,,,,,,,9,39,97,1,0,0,response1disk,6,2,5,1,0,0,rectangle,2,5,1,0,0,,4,"[144,66,198,304,162,26,176,248,142,139,248,171,153,288,34,134,235,166,189,41]",2,5,1,0,0,0,5,4,4,148,1,,,,,,,,,,,,,,,,,,,,,
,,,,,,,,,,,,,,,,,,,,,,,,,,,,,,,,,,,,,,,,,,,5b2b03070ec82d0001d28898,5fb5d9ff8341131d1550ecf4,2020-11-18_23h36.36.213,Colour_Similarity_Experiment,2020.1.2,Win32,60,5fb5945709dec70f2d595766,,,,,,,,,,,,,,,,,,,,PF,,,,,,,,5,7.533,,,,,,,,,,,,,,,,,,,,,,,,,,,,7,109,-36,1,0,0,response3disk,9,-2,5,1,0,0,rectangle,-2,5,1,0,0,,5,"[144,66,198,304,162,26,176,248,142,139,248,171,153,288,34,134,235,166,189,41]",-2,5,1,0,0,0,6,5,5,10,1,,,,,,,,,,,,,,,,,,,,,
,,,,,,,,,,,,,,,,,,,,,,,,,,,,,,,,,,,,,,,,,,,5b2b03070ec82d0001d28898,5fb5d9ff8341131d1550ecf4,2020-11-18_23h36.36.213,Colour_Similarity_Experiment,2020.1.2,Win32,60,5fb5945709dec70f2d595766,,,,,,,,,,,,,,,,,,,,FF,,,,,,,,5,2.017,,,,,,,,,,,,,,,,,,,,,,,,,,,,1,84,-34,1,0,0,response3disk,6,2,5,1,0,0,rectangle,2,5,1,0,0,,5,"[144,66,198,304,162,26,176,248,142,139,248,171,153,288,34,134,235,166,189,41]",2,5,1,0,0,0,7,6,6,58,1,,,,,,,,,,,,,,,,,,,,,
,,,,,,,,,,,,,,,,,,,,,,,,,,,,,,,,,,,,,,,,,,,5b2b03070ec82d0001d28898,5fb5d9ff8341131d1550ecf4,2020-11-18_23h36.36.213,Colour_Similarity_Experiment,2020.1.2,Win32,60,5fb5945709dec70f2d595766,,,,,,,,,,,,,,,,,,,,PF,,,,,,,,5,7.983,,,,,,,,,,,,,,,,,,,,,,,,,,,,3,73,-46,1,0,0,response3disk,7,8,1,1,0,0,rectangle,8,1,1,0,0,,1,"[144,66,198,304,162,26,176,248,142,139,248,171,153,288,34,134,235,166,189,41]",8,1,1,0,0,0,8,7,7,41,1,,,,,,,,,,,,,,,,,,,,,
,,,,,,,,,,,,,,,,,,,,,,,,,,,,,,,,,,,,,,,,,,,5b2b03070ec82d0001d28898,5fb5d9ff8341131d1550ecf4,2020-11-18_23h36.36.213,Colour_Similarity_Experiment,2020.1.2,Win32,60,5fb5945709dec70f2d595766,,,,,,,,,,,,,,,,,,,,FF,,,,,,,,2,5.275,,,,,,,,,,,,,,,,,,,,,,,,,,,,4,-108,-26,1,0,0,response5disk,3,9,2,1,0,0,rectangle,9,2,1,0,0,,1,"[144,66,198,304,162,26,176,248,142,139,248,171,153,288,34,134,235,166,189,41]",9,2,1,0,0,0,9,8,8,77,1,,,,,,,,,,,,,,,,,,,,,
,,,,,,,,,,,,,,,,,,,,,,,,,,,,,,,,,,,,,,,,,,,5b2b03070ec82d0001d28898,5fb5d9ff8341131d1550ecf4,2020-11-18_23h36.36.213,Colour_Similarity_Experiment,2020.1.2,Win32,60,5fb5945709dec70f2d595766,,,,,,,,,,,,,,,,,,,,PF,,,,,,,,6,3.385,,,,,,,,,,,,,,,,,,,,,,,,,,,,2,74,32,1,0,0,response1disk,3,1,1,1,0,0,rectangle,1,1,1,0,0,,7,"[144,66,198,304,162,26,176,248,142,139,248,171,153,288,34,134,235,166,189,41]",1,1,1,0,0,0,10,9,9,69,1,,,,,,,,,,,,,,,,,,,,,
,,,,,,,,,,,,,,,,,,,,,,,,,,,,,,,,,,,,,,,,,,,5b2b03070ec82d0001d28898,5fb5d9ff8341131d1550ecf4,2020-11-18_23h36.36.213,Colour_Similarity_Experiment,2020.1.2,Win32,60,5fb5945709dec70f2d595766,,,,,,,,,,,,,,,,,,,,FF,,,,,,,,7,3.033,,,,,,,,,,,,,,,,,,,,,,,,,,,,8,49,62,1,0,0,response1disk,3,13,0,1,0,0,rectangle,13,0,1,0,0,,1,"[144,66,198,304,162,26,176,248,142,139,248,171,153,288,34,134,235,166,189,41]",13,0,1,0,0,0,11,10,10,154,1,,,,,,,,,,,,,,,,,,,,,
,,,,,,,,,,,,,,,,,,,,,,,,,,,,,,,,,,,,,,,,,,,5b2b03070ec82d0001d28898,5fb5d9ff8341131d1550ecf4,2020-11-18_23h36.36.213,Colour_Similarity_Experiment,2020.1.2,Win32,60,5fb5945709dec70f2d595766,,,,,,,,,,,,,,,,,,,,FF,,,,,,,,6,3.701,,,,,,,,,,,,,,,,,,,,,,,,,,,,8,93,34,1,0,0,response1disk,2,12,-6,1,0,0,rectangle,12,-6,1,0,0,,1,"[144,66,198,304,162,26,176,248,142,139,248,171,153,288,34,134,235,166,189,41]",12,-6,1,0,0,0,12,11,11,22,1,,,,,,,,,,,,,,,,,,,,,
,,,,,,,,,,,,,,,,,,,,,,,,,,,,,,,,,,,,,,,,,,,5b2b03070ec82d0001d28898,5fb5d9ff8341131d1550ecf4,2020-11-18_23h36.36.213,Colour_Similarity_Experiment,2020.1.2,Win32,60,5fb5945709dec70f2d595766,,,,,,,,,,,,,,,,,,,,FF,,,,,,,,5,3.184,,,,,,,,,,,,,,,,,,,,,,,,,,,,4,48,-34,1,0,0,response3disk,6,-5,-2,1,0,0,rectangle,-5,-2,1,0,0,,5,"[144,66,198,304,162,26,176,248,142,139,248,171,153,288,34,134,235,166,189,41]",-5,-2,1,0,0,0,13,12,12,122,1,,,,,,,,,,,,,,,,,,,,,
,,,,,,,,,,,,,,,,,,,,,,,,,,,,,,,,,,,,,,,,,,,5b2b03070ec82d0001d28898,5fb5d9ff8341131d1550ecf4,2020-11-18_23h36.36.213,Colour_Similarity_Experiment,2020.1.2,Win32,60,5fb5945709dec70f2d595766,,,,,,,,,,,,,,,,,,,,PF,,,,,,,,7,2.532,,,,,,,,,,,,,,,,,,,,,,,,,,,,2,38,52,1,0,0,response1disk,4,-5,0,1,0,0,rectangle,-5,0,1,0,0,,3,"[144,66,198,304,162,26,176,248,142,139,248,171,153,288,34,134,235,166,189,41]",-5,0,1,0,0,0,14,13,13,127,1,,,,,,,,,,,,,,,,,,,,,
,,,,,,,,,,,,,,,,,,,,,,,,,,,,,,,,,,,,,,,,,,,5b2b03070ec82d0001d28898,5fb5d9ff8341131d1550ecf4,2020-11-18_23h36.36.213,Colour_Similarity_Experiment,2020.1.2,Win32,60,5fb5945709dec70f2d595766,,,,,,,,,,,,,,,,,,,,PF,,,,,,,,6,3.981,,,,,,,,,,,,,,,,,,,,,,,,,,,,8,86,29,1,0,0,response1disk,2,1,2,1,0,0,rectangle,1,2,1,0,0,,5,"[144,66,198,304,162,26,176,248,142,139,248,171,153,288,34,134,235,166,189,41]",1,2,1,0,0,0,15,14,14,83,1,,,,,,,,,,,,,,,,,,,,,
,,,,,,,,,,,,,,,,,,,,,,,,,,,,,,,,,,,,,,,,,,,5b2b03070ec82d0001d28898,5fb5d9ff8341131d1550ecf4,2020-11-18_23h36.36.213,Colour_Similarity_Experiment,2020.1.2,Win32,60,5fb5945709dec70f2d595766,,,,,,,,,,,,,,,,,,,,FF,,,,,,,,5,2.239,,,,,,,,,,,,,,,,,,,,,,,,,,,,6,63,-43,1,0,0,response3disk,8,12,2,1,0,0,rectangle,12,2,1,0,0,,4,"[144,66,198,304,162,26,176,248,142,139,248,171,153,288,34,134,235,166,189,41]",12,2,1,0,0,0,16,15,15,133,1,,,,,,,,,,,,,,,,,,,,,
,,,,,,,,,,,,,,,,,,,,,,,,,,,,,,,,,,,,,,,,,,,5b2b03070ec82d0001d28898,5fb5d9ff8341131d1550ecf4,2020-11-18_23h36.36.213,Colour_Similarity_Experiment,2020.1.2,Win32,60,5fb5945709dec70f2d595766,,,,,,,,,,,,,,,,,,,,PF,,,,,,,,7,1.415,,,,,,,,,,,,,,,,,,,,,,,,,,,,4,24,54,1,0,0,response1disk,8,-6,-5,1,0,0,rectangle,-6,-5,1,0,0,,0,"[144,66,198,304,162,26,176,248,142,139,248,171,153,288,34,134,235,166,189,41]",-6,-5,1,0,0,0,17,16,16,124,1,,,,,,,,,,,,,,,,,,,,,
,,,,,,,,,,,,,,,,,,,,,,,,,,,,,,,,,,,,,,,,,,,5b2b03070ec82d0001d28898,5fb5d9ff8341131d1550ecf4,2020-11-18_23h36.36.213,Colour_Similarity_Experiment,2020.1.2,Win32,60,5fb5945709dec70f2d595766,,,,,,,,,,,,,,,,,,,,FF,,,,,,,,2,3.149,,,,,,,,,,,,,,,,,,,,,,,,,,,,3,-86,-46,1,0,0,response5disk,4,8,-1,1,0,0,rectangle,8,-1,1,0,0,,5,"[144,66,198,304,162,26,176,248,142,139,248,171,153,288,34,134,235,166,189,41]",8,-1,1,0,0,0,18,17,17,110,1,,,,,,,,,,,,,,,,,,,,,
,,,,,,,,,,,,,,,,,,,,,,,,,,,,,,,,,,,,,,,,,,,5b2b03070ec82d0001d28898,5fb5d9ff8341131d1550ecf4,2020-11-18_23h36.36.213,Colour_Similarity_Experiment,2020.1.2,Win32,60,5fb5945709dec70f2d595766,,,,,,,,,,,,,,,,,,,,FF,,,,,,,,7,1.433,,,,,,,,,,,,,,,,,,,,,,,,,,,,1,26,67,1,0,0,response1disk,5,-1,-6,1,0,0,rectangle,-1,-6,1,0,0,,2,"[144,66,198,304,162,26,176,248,142,139,248,171,153,288,34,134,235,166,189,41]",-1,-6,1,0,0,0,19,18,18,82,1,,,,,,,,,,,,,,,,,,,,,
,,,,,,,,,,,,,,,,,,,,,,,,,,,,,,,,,,,,,,,,,,,5b2b03070ec82d0001d28898,5fb5d9ff8341131d1550ecf4,2020-11-18_23h36.36.213,Colour_Similarity_Experiment,2020.1.2,Win32,60,5fb5945709dec70f2d595766,,,,,,,,,,,,,,,,,,,,PF,,,,,,,,5,3.984,,,,,,,,,,,,,,,,,,,,,,,,,,,,6,83,-42,1,0,0,response3disk,4,5,-6,1,0,0,rectangle,5,-6,1,0,0,,2,"[144,66,198,304,162,26,176,248,142,139,248,171,153,288,34,134,235,166,189,41]",5,-6,1,0,0,0,20,19,19,33,1,,,,,,,,,,,,,,,,,,,,,
,,,,,,,,,,,,,,,,,,,,,,,,,,,,,,,,,,,,,,,,,,,5b2b03070ec82d0001d28898,5fb5d9ff8341131d1550ecf4,2020-11-18_23h36.36.213,Colour_Similarity_Experiment,2020.1.2,Win32,60,5fb5945709dec70f2d595766,,,,,,,,,,,,,,,,,,,,FF,,,,,,,,5,6.502,,,,,,,,,,,,,,,,,,,,,,,,,,,,6,37,-26,1,0,0,response3disk,9,-6,-8,1,0,0,rectangle,-6,-8,1,0,0,,5,"[144,66,198,304,162,26,176,248,142,139,248,171,153,288,34,134,235,166,189,41]",-6,-8,1,0,0,0,21,20,20,160,1,,,,,,,,,,,,,,,,,,,,,
,,,,,,,,,,,,,,,,,,,,,,,,,,,,,,,,,,,,,,,,,,,5b2b03070ec82d0001d28898,5fb5d9ff8341131d1550ecf4,2020-11-18_23h36.36.213,Colour_Similarity_Experiment,2020.1.2,Win32,60,5fb5945709dec70f2d595766,,,,,,,,,,,,,,,,,,,,PF,,,,,,,,6,2.782,,,,,,,,,,,,,,,,,,,,,,,,,,,,3,77,36,1,0,0,response1disk,6,15,-1,1,0,0,rectangle,15,-1,1,0,0,,5,"[144,66,198,304,162,26,176,248,142,139,248,171,153,288,34,134,235,166,189,41]",15,-1,1,0,0,0,22,21,21,47,1,,,,,,,,,,,,,,,,,,,,,
,,,,,,,,,,,,,,,,,,,,,,,,,,,,,,,,,,,,,,,,,,,5b2b03070ec82d0001d28898,5fb5d9ff8341131d1550ecf4,2020-11-18_23h36.36.213,Colour_Similarity_Experiment,2020.1.2,Win32,60,5fb5945709dec70f2d595766,,,,,,,,,,,,,,,,,,,,PF,,,,,,,,6,3.018,,,,,,,,,,,,,,,,,,,,,,,,,,,,9,90,51,1,0,0,response1disk,2,-8,4,1,0,0,rectangle,-8,4,1,0,0,,3,"[144,66,198,304,162,26,176,248,142,139,248,171,153,288,34,134,235,166,189,41]",-8,4,1,0,0,0,23,22,22,157,1,,,,,,,,,,,,,,,,,,,,,
,,,,,,,,,,,,,,,,,,,,,,,,,,,,,,,,,,,,,,,,,,,5b2b03070ec82d0001d28898,5fb5d9ff8341131d1550ecf4,2020-11-18_23h36.36.213,Colour_Similarity_Experiment,2020.1.2,Win32,60,5fb5945709dec70f2d595766,,,,,,,,,,,,,,,,,,,,FF,,,,,,,,7,1.017,,,,,,,,,,,,,,,,,,,,,,,,,,,,7,31,59,1,0,0,response1disk,1,0,-7,1,0,0,rectangle,0,-7,1,0,0,,3,"[144,66,198,304,162,26,176,248,142,139,248,171,153,288,34,134,235,166,189,41]",0,-7,1,0,0,0,24,23,23,132,1,,,,,,,,,,,,,,,,,,,,,
,,,,,,,,,,,,,,,,,,,,,,,,,,,,,,,,,,,,,,,,,,,5b2b03070ec82d0001d28898,5fb5d9ff8341131d1550ecf4,2020-11-18_23h36.36.213,Colour_Similarity_Experiment,2020.1.2,Win32,60,5fb5945709dec70f2d595766,,,,,,,,,,,,,,,,,,,,FF,,,,,,,,7,1.785,,,,,,,,,,,,,,,,,,,,,,,,,,,,4,29,50,1,0,0,response1disk,7,18,2,1,0,0,rectangle,18,2,1,0,0,,7,"[144,66,198,304,162,26,176,248,142,139,248,171,153,288,34,134,235,166,189,41]",18,2,1,0,0,0,25,24,24,87,1,,,,,,,,,,,,,,,,,,,,,
,,,,,,,,,,,,,,,,,,,,,,,,,,,,,,,,,,,,,,,,,,,5b2b03070ec82d0001d28898,5fb5d9ff8341131d1550ecf4,2020-11-18_23h36.36.213,Colour_Similarity_Experiment,2020.1.2,Win32,60,5fb5945709dec70f2d595766,,,,,,,,,,,,,,,,,,,,PF,,,,,,,,7,2.067,,,,,,,,,,,,,,,,,,,,,,,,,,,,3,50,71,1,0,0,response1disk,8,-3,-6,1,0,0,rectangle,52,-91,1,0,0,4,4,"[144,66,198,304,162,26,176,248,142,139,248,171,153,288,34,134,235,166,189,41]",0,2,1,0,0,0,26,25,25,3,1,response3disk_3,rectangle,,,,,,,,,,,,,,,,,,,
,,,,,,,,,,,,,,,,,,,,,,,,,,,,,,,,,,,,,,,,,,,5b2b03070ec82d0001d28898,5fb5d9ff8341131d1550ecf4,2020-11-18_23h36.36.213,Colour_Similarity_Experiment,2020.1.2,Win32,60,5fb5945709dec70f2d595766,,,,,,,,,,,,,,,,,,,,PF,,,,,,,,4,4.067,,,,,,,,,,,,,,,,,,,,,,,,,,,,5,54,-78,1,0,0,response3disk,6,-2,3,1,0,0,rectangle,-2,3,1,0,0,4,4,"[144,66,198,304,162,26,176,248,142,139,248,171,153,288,34,134,235,166,189,41]",-2,3,1,0,0,0,27,26,26,103,1,,,,,,,,,,,,,,,,,,,,,
,,,,,,,,,,,,,,,,,,,,,,,,,,,,,,,,,,,,,,,,,,,5b2b03070ec82d0001d28898,5fb5d9ff8341131d1550ecf4,2020-11-18_23h36.36.213,Colour_Similarity_Experiment,2020.1.2,Win32,60,5fb5945709dec70f2d595766,,,,,,,,,,,,,,,,,,,,FF,,,,,,,,6,2.251,,,,,,,,,,,,,,,,,,,,,,,,,,,,8,75,19,1,0,0,response1disk,5,3,-8,1,0,0,rectangle,3,-8,1,0,0,4,4,"[144,66,198,304,162,26,176,248,142,139,248,171,153,288,34,134,235,166,189,41]",3,-8,1,0,0,0,28,27,27,152,1,,,,,,,,,,,,,,,,,,,,,
,,,,,,,,,,,,,,,,,,,,,,,,,,,,,,,,,,,,,,,,,,,5b2b03070ec82d0001d28898,5fb5d9ff8341131d1550ecf4,2020-11-18_23h36.36.213,Colour_Similarity_Experiment,2020.1.2,Win32,60,5fb5945709dec70f2d595766,,,,,,,,,,,,,,,,,,,,FF,,,,,,,,0,1.484,,,,,,,,,,,,,,,,,,,,,,,,,,,,4,-46,69,1,0,0,response7disk,4,5,-7,1,0,0,rectangle,5,-7,1,0,0,4,5,"[144,66,198,304,162,26,176,248,142,139,248,171,153,288,34,134,235,166,189,41]",5,-7,1,0,0,0,29,28,28,84,1,,,,,,,,,,,,,,,,,,,,,
,,,,,,,,,,,,,,,,,,,,,,,,,,,,,,,,,,,,,,,,,,,5b2b03070ec82d0001d28898,5fb5d9ff8341131d1550ecf4,2020-11-18_23h36.36.213,Colour_Similarity_Experiment,2020.1.2,Win32,60,5fb5945709dec70f2d595766,,,,,,,,,,,,,,,,,,,,FF,,,,,,,,6,1.751,,,,,,,,,,,,,,,,,,,,,,,,,,,,6,84,28,1,0,0,response1disk,4,10,-1,1,0,0,rectangle,10,-1,1,0,0,4,3,"[144,66,198,304,162,26,176,248,142,139,248,171,153,288,34,134,235,166,189,41]",10,-1,1,0,0,0,30,29,29,56,1,,,,,,,,,,,,,,,,,,,,,
,,,,,,,,,,,,,,,,,,,,,,,,,,,,,,,,,,,,,,,,,,,5b2b03070ec82d0001d28898,5fb5d9ff8341131d1550ecf4,2020-11-18_23h36.36.213,Colour_Similarity_Experiment,2020.1.2,Win32,60,5fb5945709dec70f2d595766,,,,,,,,,,,,,,,,,,,,PF,,,,,,,,7,1.618,,,,,,,,,,,,,,,,,,,,,,,,,,,,9,46,74,1,0,0,response1disk,4,-6,-6,1,0,0,rectangle,-6,-6,1,0,0,4,1,"[144,66,198,304,162,26,176,248,142,139,248,171,153,288,34,134,235,166,189,41]",-6,-6,1,0,0,0,31,30,30,114,1,,,,,,,,,,,,,,,,,,,,,
,,,,,,,,,,,,,,,,,,,,,,,,,,,,,,,,,,,,,,,,,,,5b2b03070ec82d0001d28898,5fb5d9ff8341131d1550ecf4,2020-11-18_23h36.36.213,Colour_Similarity_Experiment,2020.1.2,Win32,60,5fb5945709dec70f2d595766,,,,,,,,,,,,,,,,,,,,FF,,,,,,,,5,1.899,,,,,,,,,,,,,,,,,,,,,,,,,,,,2,63,-49,1,0,0,response3disk,3,-6,-6,1,0,0,rectangle,-6,-6,1,0,0,4,1,"[144,66,198,304,162,26,176,248,142,139,248,171,153,288,34,134,235,166,189,41]",-6,-6,1,0,0,0,32,31,31,104,1,,,,,,,,,,,,,,,,,,,,,
,,,,,,,,,,,,,,,,,,,,,,,,,,,,,,,,,,,,,,,,,,,5b2b03070ec82d0001d28898,5fb5d9ff8341131d1550ecf4,2020-11-18_23h36.36.213,Colour_Similarity_Experiment,2020.1.2,Win32,60,5fb5945709dec70f2d595766,,,,,,,,,,,,,,,,,,,,PF,,,,,,,,2,1.315,,,,,,,,,,,,,,,,,,,,,,,,,,,,3,-45,-34,1,0,0,response5disk,3,24,2,1,0,0,rectangle,24,2,1,0,0,4,2,"[144,66,198,304,162,26,176,248,142,139,248,171,153,288,34,134,235,166,189,41]",24,2,1,0,0,0,33,32,32,4,1,,,,,,,,,,,,,,,,,,,,,
,,,,,,,,,,,,,,,,,,,,,,,,,,,,,,,,,,,,,,,,,,,5b2b03070ec82d0001d28898,5fb5d9ff8341131d1550ecf4,2020-11-18_23h36.36.213,Colour_Similarity_Experiment,2020.1.2,Win32,60,5fb5945709dec70f2d595766,,,,,,,,,,,,,,,,,,,,FF,,,,,,,,6,1.484,,,,,,,,,,,,,,,,,,,,,,,,,,,,3,71,35,1,0,0,response1disk,2,18,2,1,0,0,rectangle,-64,-29,1,0,0,4,2,"[144,66,198,304,162,26,176,248,142,139,248,171,153,288,34,134,235,166,189,41]",11,3,1,0,0,0,34,33,33,93,1,response5disk_3,rectangle,,,,,,,,,,,,,,,,,,,
,,,,,,,,,,,,,,,,,,,,,,,,,,,,,,,,,,,,,,,,,,,5b2b03070ec82d0001d28898,5fb5d9ff8341131d1550ecf4,2020-11-18_23h36.36.213,Colour_Similarity_Experiment,2020.1.2,Win32,60,5fb5945709dec70f2d595766,,,,,,,,,,,,,,,,,,,,PF,,,,,,,,7,1.151,,,,,,,,,,,,,,,,,,,,,,,,,,,,2,38,49,1,0,0,response1disk,6,2,12,1,0,0,rectangle,2,12,1,0,0,4,4,"[144,66,198,304,162,26,176,248,142,139,248,171,153,288,34,134,235,166,189,41]",2,12,1,0,0,0,35,34,34,113,1,,,,,,,,,,,,,,,,,,,,,
,,,,,,,,,,,,,,,,,,,,,,,,,,,,,,,,,,,,,,,,,,,5b2b03070ec82d0001d28898,5fb5d9ff8341131d1550ecf4,2020-11-18_23h36.36.213,Colour_Similarity_Experiment,2020.1.2,Win32,60,5fb5945709dec70f2d595766,,,,,,,,,,,,,,,,,,,,FF,,,,,,,,7,1.034,,,,,,,,,,,,,,,,,,,,,,,,,,,,7,30,59,1,0,0,response1disk,3,1,-6,1,0,0,rectangle,1,-6,1,0,0,4,0,"[144,66,198,304,162,26,176,248,142,139,248,171,153,288,34,134,235,166,189,41]",1,-6,1,0,0,0,36,35,35,73,1,,,,,,,,,,,,,,,,,,,,,
,,,,,,,,,,,,,,,,,,,,,,,,,,,,,,,,,,,,,,,,,,,5b2b03070ec82d0001d28898,5fb5d9ff8341131d1550ecf4,2020-11-18_23h36.36.213,Colour_Similarity_Experiment,2020.1.2,Win32,60,5fb5945709dec70f2d595766,,,,,,,,,,,,,,,,,,,,FF,,,,,,,,5,1.832,,,,,,,,,,,,,,,,,,,,,,,,,,,,8,45,-30,1,0,0,response3disk,6,3,4,1,0,0,rectangle,3,4,1,0,0,4,3,"[144,66,198,304,162,26,176,248,142,139,248,171,153,288,34,134,235,166,189,41]",3,4,1,0,0,0,37,36,36,37,1,,,,,,,,,,,,,,,,,,,,,
,,,,,,,,,,,,,,,,,,,,,,,,,,,,,,,,,,,,,,,,,,,5b2b03070ec82d0001d28898,5fb5d9ff8341131d1550ecf4,2020-11-18_23h36.36.213,Colour_Similarity_Experiment,2020.1.2,Win32,60,5fb5945709dec70f2d595766,,,,,,,,,,,,,,,,,,,,FF,,,,,,,,6,1.217,,,,,,,,,,,,,,,,,,,,,,,,,,,,6,65,34,1,0,0,response1disk,1,-2,-8,1,0,0,rectangle,-2,-8,1,0,0,4,2,"[144,66,198,304,162,26,176,248,142,139,248,171,153,288,34,134,235,166,189,41]",-2,-8,1,0,0,0,38,37,37,5,1,,,,,,,,,,,,,,,,,,,,,
,,,,,,,,,,,,,,,,,,,,,,,,,,,,,,,,,,,,,,,,,,,5b2b03070ec82d0001d28898,5fb5d9ff8341131d1550ecf4,2020-11-18_23h36.36.213,Colour_Similarity_Experiment,2020.1.2,Win32,60,5fb5945709dec70f2d595766,,,,,,,,,,,,,,,,,,,,PF,,,,,,,,6,3.149,,,,,,,,,,,,,,,,,,,,,,,,,,,,1,59,54,1,0,0,response1disk,8,-8,16,1,0,0,rectangle,-8,16,1,0,0,4,0,"[144,66,198,304,162,26,176,248,142,139,248,171,153,288,34,134,235,166,189,41]",-8,16,1,0,0,0,39,38,38,65,1,,,,,,,,,,,,,,,,,,,,,
,,,,,,,,,,,,,,,,,,,,,,,,,,,,,,,,,,,,,,,,,,,5b2b03070ec82d0001d28898,5fb5d9ff8341131d1550ecf4,2020-11-18_23h36.36.213,Colour_Similarity_Experiment,2020.1.2,Win32,60,5fb5945709dec70f2d595766,,,,,,,,,,,,,,,,,,,,PF,,,,,,,,7,0.94,,,,,,,,,,,,,,,,,,,,,,,,,,,,5,33,74,1,0,0,response1disk,1,1,-10,1,0,0,rectangle,1,-10,1,0,0,4,1,"[144,66,198,304,162,26,176,248,142,139,248,171,153,288,34,134,235,166,189,41]",1,-10,1,0,0,0,40,39,39,159,1,,,,,,,,,,,,,,,,,,,,,
,,,,,,,,,,,,,,,,,,,,,,,,,,,,,,,,,,,,,,,,,,,5b2b03070ec82d0001d28898,5fb5d9ff8341131d1550ecf4,2020-11-18_23h36.36.213,Colour_Similarity_Experiment,2020.1.2,Win32,60,5fb5945709dec70f2d595766,,,,,,,,,,,,,,,,,,,,FF,,,,,,,,0,1.683,,,,,,,,,,,,,,,,,,,,,,,,,,,,7,-51,70,1,0,0,response7disk,7,15,-16,1,0,0,rectangle,29,85,1,0,0,7,7,"[144,66,198,304,162,26,176,248,142,139,248,171,153,288,34,134,235,166,189,41]",11,-1,1,0,0,0,41,40,40,34,1,response1disk_3,rectangle,,,,,,,,,,,,,,,,,,,
,,,,,,,,,,,,,,,,,,,,,,,,,,,,,,,,,,,,,,,,,,,5b2b03070ec82d0001d28898,5fb5d9ff8341131d1550ecf4,2020-11-18_23h36.36.213,Colour_Similarity_Experiment,2020.1.2,Win32,60,5fb5945709dec70f2d595766,,,,,,,,,,,,,,,,,,,,PF,,,,,,,,5,1.866,,,,,,,,,,,,,,,,,,,,,,,,,,,,3,69,-28,1,0,0,response3disk,2,-14,14,1,0,0,rectangle,-14,14,1,0,0,7,2,"[144,66,198,304,162,26,176,248,142,139,248,171,153,288,34,134,235,166,189,41]",-14,14,1,0,0,0,42,41,41,36,1,,,,,,,,,,,,,,,,,,,,,
,,,,,,,,,,,,,,,,,,,,,,,,,,,,,,,,,,,,,,,,,,,5b2b03070ec82d0001d28898,5fb5d9ff8341131d1550ecf4,2020-11-18_23h36.36.213,Colour_Similarity_Experiment,2020.1.2,Win32,60,5fb5945709dec70f2d595766,,,,,,,,,,,,,,,,,,,,PF,,,,,,,,6,1.382,,,,,,,,,,,,,,,,,,,,,,,,,,,,4,62,36,1,0,0,response1disk,9,2,2,1,0,0,rectangle,2,2,1,0,0,7,3,"[144,66,198,304,162,26,176,248,142,139,248,171,153,288,34,134,235,166,189,41]",2,2,1,0,0,0,43,42,42,75,1,,,,,,,,,,,,,,,,,,,,,
,,,,,,,,,,,,,,,,,,,,,,,,,,,,,,,,,,,,,,,,,,,5b2b03070ec82d0001d28898,5fb5d9ff8341131d1550ecf4,2020-11-18_23h36.36.213,Colour_Similarity_Experiment,2020.1.2,Win32,60,5fb5945709dec70f2d595766,,,,,,,,,,,,,,,,,,,,PF,,,,,,,,1,1.782,,,,,,,,,,,,,,,,,,,,,,,,,,,,5,-58,28,1,0,0,response7disk,5,12,-6,1,0,0,rectangle,12,-6,1,0,0,7,0,"[144,66,198,304,162,26,176,248,142,139,248,171,153,288,34,134,235,166,189,41]",12,-6,1,0,0,0,44,43,43,94,1,,,,,,,,,,,,,,,,,,,,,
,,,,,,,,,,,,,,,,,,,,,,,,,,,,,,,,,,,,,,,,,,,5b2b03070ec82d0001d28898,5fb5d9ff8341131d1550ecf4,2020-11-18_23h36.36.213,Colour_Similarity_Experiment,2020.1.2,Win32,60,5fb5945709dec70f2d595766,,,,,,,,,,,,,,,,,,,,PF,,,,,,,,7,1.067,,,,,,,,,,,,,,,,,,,,,,,,,,,,6,48,67,1,0,0,response1disk,2,6,3,1,0,0,rectangle,6,3,1,0,0,7,1,"[144,66,198,304,162,26,176,248,142,139,248,171,153,288,34,134,235,166,189,41]",6,3,1,0,0,0,45,44,44,130,1,,,,,,,,,,,,,,,,,,,,,
,,,,,,,,,,,,,,,,,,,,,,,,,,,,,,,,,,,,,,,,,,,5b2b03070ec82d0001d28898,5fb5d9ff8341131d1550ecf4,2020-11-18_23h36.36.213,Colour_Similarity_Experiment,2020.1.2,Win32,60,5fb5945709dec70f2d595766,,,,,,,,,,,,,,,,,,,,FF,,,,,,,,7,1.236,,,,,,,,,,,,,,,,,,,,,,,,,,,,1,42,67,1,0,0,response1disk,7,-6,-2,1,0,0,rectangle,-6,-2,1,0,0,7,5,"[144,66,198,304,162,26,176,248,142,139,248,171,153,288,34,134,235,166,189,41]",-6,-2,1,0,0,0,46,45,45,137,1,,,,,,,,,,,,,,,,,,,,,
,,,,,,,,,,,,,,,,,,,,,,,,,,,,,,,,,,,,,,,,,,,5b2b03070ec82d0001d28898,5fb5d9ff8341131d1550ecf4,2020-11-18_23h36.36.213,Colour_Similarity_Experiment,2020.1.2,Win32,60,5fb5945709dec70f2d595766,,,,,,,,,,,,,,,,,,,,FF,,,,,,,,4,3.969,,,,,,,,,,,,,,,,,,,,,,,,,,,,8,43,-46,1,0,0,response3disk,9,5,-3,1,0,0,rectangle,5,-3,1,0,0,7,1,"[144,66,198,304,162,26,176,248,142,139,248,171,153,288,34,134,235,166,189,41]",5,-3,1,0,0,0,47,46,46,105,1,,,,,,,,,,,,,,,,,,,,,
,,,,,,,,,,,,,,,,,,,,,,,,,,,,,,,,,,,,,,,,,,,5b2b03070ec82d0001d28898,5fb5d9ff8341131d1550ecf4,2020-11-18_23h36.36.213,Colour_Similarity_Experiment,2020.1.2,Win32,60,5fb5945709dec70f2d595766,,,,,,,,,,,,,,,,,,,,PF,,,,,,,,7,2.681,,,,,,,,,,,,,,,,,,,,,,,,,,,,9,42,70,1,0,0,response1disk,7,-1,-12,1,0,0,rectangle,-1,-12,1,0,0,7,4,"[144,66,198,304,162,26,176,248,142,139,248,171,153,288,34,134,235,166,189,41]",-1,-12,1,0,0,0,48,47,47,121,1,,,,,,,,,,,,,,,,,,,,,
,,,,,,,,,,,,,,,,,,,,,,,,,,,,,,,,,,,,,,,,,,,5b2b03070ec82d0001d28898,5fb5d9ff8341131d1550ecf4,2020-11-18_23h36.36.213,Colour_Similarity_Experiment,2020.1.2,Win32,60,5fb5945709dec70f2d595766,,,,,,,,,,,,,,,,,,,,PF,,,,,,,,7,1.582,,,,,,,,,,,,,,,,,,,,,,,,,,,,1,26,45,1,0,0,response1disk,7,1,6,1,0,0,rectangle,1,6,1,0,0,7,7,"[144,66,198,304,162,26,176,248,142,139,248,171,153,288,34,134,235,166,189,41]",1,6,1,0,0,0,49,48,48,150,1,,,,,,,,,,,,,,,,,,,,,
,,,,,,,,,,,,,,,,,,,,,,,,,,,,,,,,,,,,,,,,,,,5b2b03070ec82d0001d28898,5fb5d9ff8341131d1550ecf4,2020-11-18_23h36.36.213,Colour_Similarity_Experiment,2020.1.2,Win32,60,5fb5945709dec70f2d595766,,,,,,,,,,,,,,,,,,,,PF,,,,,,,,5,3.121,,,,,,,,,,,,,,,,,,,,,,,,,,,,1,86,-24,1,0,0,response3disk,2,7,4,1,0,0,rectangle,7,4,1,0,0,7,4,"[144,66,198,304,162,26,176,248,142,139,248,171,153,288,34,134,235,166,189,41]",7,4,1,0,0,0,50,49,49,24,1,,,,,,,,,,,,,,,,,,,,,
,,,,,,,,,,,,,,,,,,,,,,,,,,,,,,,,,,,,,,,,,,,5b2b03070ec82d0001d28898,5fb5d9ff8341131d1550ecf4,2020-11-18_23h36.36.213,Colour_Similarity_Experiment,2020.1.2,Win32,60,5fb5945709dec70f2d595766,,,,,,,,,,,,,,,,,,,,PF,,,,,,,,1,1.583,,,,,,,,,,,,,,,,,,,,,,,,,,,,2,-67,22,1,0,0,response7disk,2,-2,3,1,0,0,rectangle,-2,3,1,0,0,7,0,"[144,66,198,304,162,26,176,248,142,139,248,171,153,288,34,134,235,166,189,41]",-2,3,1,0,0,0,51,50,50,14,1,,,,,,,,,,,,,,,,,,,,,
,,,,,,,,,,,,,,,,,,,,,,,,,,,,,,,,,,,,,,,,,,,5b2b03070ec82d0001d28898,5fb5d9ff8341131d1550ecf4,2020-11-18_23h36.36.213,Colour_Similarity_Experiment,2020.1.2,Win32,60,5fb5945709dec70f2d595766,,,,,,,,,,,,,,,,,,,,PF,,,,,,,,3,1.652,,,,,,,,,,,,,,,,,,,,,,,,,,,,3,-62,-98,1,0,0,response5disk,4,-17,-6,1,0,0,rectangle,-17,-6,1,0,0,7,1,"[144,66,198,304,162,26,176,248,142,139,248,171,153,288,34,134,235,166,189,41]",-17,-6,1,0,0,0,52,51,51,30,1,,,,,,,,,,,,,,,,,,,,,
,,,,,,,,,,,,,,,,,,,,,,,,,,,,,,,,,,,,,,,,,,,5b2b03070ec82d0001d28898,5fb5d9ff8341131d1550ecf4,2020-11-18_23h36.36.213,Colour_Similarity_Experiment,2020.1.2,Win32,60,5fb5945709dec70f2d595766,,,,,,,,,,,,,,,,,,,,FF,,,,,,,,6,1.533,,,,,,,,,,,,,,,,,,,,,,,,,,,,5,86,47,1,0,0,response1disk,7,-13,4,1,0,0,rectangle,-13,4,1,0,0,7,3,"[144,66,198,304,162,26,176,248,142,139,248,171,153,288,34,134,235,166,189,41]",-13,4,1,0,0,0,53,52,52,7,1,,,,,,,,,,,,,,,,,,,,,
,,,,,,,,,,,,,,,,,,,,,,,,,,,,,,,,,,,,,,,,,,,5b2b03070ec82d0001d28898,5fb5d9ff8341131d1550ecf4,2020-11-18_23h36.36.213,Colour_Similarity_Experiment,2020.1.2,Win32,60,5fb5945709dec70f2d595766,,,,,,,,,,,,,,,,,,,,PF,,,,,,,,6,2.517,,,,,,,,,,,,,,,,,,,,,,,,,,,,7,51,35,1,0,0,response1disk,4,-2,6,1,0,0,rectangle,-2,6,1,0,0,7,1,"[144,66,198,304,162,26,176,248,142,139,248,171,153,288,34,134,235,166,189,41]",-2,6,1,0,0,0,54,53,53,43,1,,,,,,,,,,,,,,,,,,,,,
,,,,,,,,,,,,,,,,,,,,,,,,,,,,,,,,,,,,,,,,,,,5b2b03070ec82d0001d28898,5fb5d9ff8341131d1550ecf4,2020-11-18_23h36.36.213,Colour_Similarity_Experiment,2020.1.2,Win32,60,5fb5945709dec70f2d595766,,,,,,,,,,,,,,,,,,,,PF,,,,,,,,4,2.019,,,,,,,,,,,,,,,,,,,,,,,,,,,,5,58,-81,1,0,0,response3disk,3,12,-1,1,0,0,rectangle,12,-1,1,0,0,7,1,"[144,66,198,304,162,26,176,248,142,139,248,171,153,288,34,134,235,166,189,41]",12,-1,1,0,0,0,55,54,54,109,1,,,,,,,,,,,,,,,,,,,,,
,,,,,,,,,,,,,,,,,,,,,,,,,,,,,,,,,,,,,,,,,,,5b2b03070ec82d0001d28898,5fb5d9ff8341131d1550ecf4,2020-11-18_23h36.36.213,Colour_Similarity_Experiment,2020.1.2,Win32,60,5fb5945709dec70f2d595766,,,,,,,,,,,,,,,,,,,,PF,,,,,,,,7,1.268,,,,,,,,,,,,,,,,,,,,,,,,,,,,7,34,53,1,0,0,response1disk,2,-4,-2,1,0,0,rectangle,-4,-2,1,0,0,7,3,"[144,66,198,304,162,26,176,248,142,139,248,171,153,288,34,134,235,166,189,41]",-4,-2,1,0,0,0,56,55,55,32,1,,,,,,,,,,,,,,,,,,,,,
,,,,,,,,,,,,,,,,,,,,,,,,,,,,,,,,,,,,,,,,,,,5b2b03070ec82d0001d28898,5fb5d9ff8341131d1550ecf4,2020-11-18_23h36.36.213,Colour_Similarity_Experiment,2020.1.2,Win32,60,5fb5945709dec70f2d595766,,,,,,,,,,,,,,,,,,,,FF,,,,,,,,7,1.168,,,,,,,,,,,,,,,,,,,,,,,,,,,,9,26,49,1,0,0,response1disk,2,6,-10,1,0,0,rectangle,6,-10,1,0,0,7,5,"[144,66,198,304,162,26,176,248,142,139,248,171,153,288,34,134,235,166,189,41]",6,-10,1,0,0,0,57,56,56,11,1,,,,,,,,,,,,,,,,,,,,,
,,,,,,,,,,,,,,,,,,,,,,,,,,,,,,,,,,,,,,,,,,,5b2b03070ec82d0001d28898,5fb5d9ff8341131d1550ecf4,2020-11-18_23h36.36.213,Colour_Similarity_Experiment,2020.1.2,Win32,60,5fb5945709dec70f2d595766,,,,,,,,,,,,,,,,,,,,FF,,,,,,,,4,1.531,,,,,,,,,,,,,,,,,,,,,,,,,,,,5,48,-68,1,0,0,response3disk,6,6,4,1,0,0,rectangle,6,4,1,0,0,7,1,"[144,66,198,304,162,26,176,248,142,139,248,171,153,288,34,134,235,166,189,41]",6,4,1,0,0,0,58,57,57,12,1,,,,,,,,,,,,,,,,,,,,,
,,,,,,,,,,,,,,,,,,,,,,,,,,,,,,,,,,,,,,,,,,,5b2b03070ec82d0001d28898,5fb5d9ff8341131d1550ecf4,2020-11-18_23h36.36.213,Colour_Similarity_Experiment,2020.1.2,Win32,60,5fb5945709dec70f2d595766,,,,,,,,,,,,,,,,,,,,FF,,,,,,,,0,2.066,,,,,,,,,,,,,,,,,,,,,,,,,,,,9,-42,77,1,0,0,response7disk,9,4,5,1,0,0,rectangle,4,5,1,0,0,7,3,"[144,66,198,304,162,26,176,248,142,139,248,171,153,288,34,134,235,166,189,41]",4,5,1,0,0,0,59,58,58,17,1,,,,,,,,,,,,,,,,,,,,,
,,,,,,,,,,,,,,,,,,,,,,,,,,,,,,,,,,,,,,,,,,,5b2b03070ec82d0001d28898,5fb5d9ff8341131d1550ecf4,2020-11-18_23h36.36.213,Colour_Similarity_Experiment,2020.1.2,Win32,60,5fb5945709dec70f2d595766,,,,,,,,,,,,,,,,,,,,FF,,,,,,,,7,1,,,,,,,,,,,,,,,,,,,,,,,,,,,,9,31,62,1,0,0,response1disk,4,3,1,1,0,0,rectangle,3,1,1,0,0,7,0,"[144,66,198,304,162,26,176,248,142,139,248,171,153,288,34,134,235,166,189,41]",3,1,1,0,0,0,60,59,59,60,1,,,,,,,,,,,,,,,,,,,,,
,,,,,,,,,,,,,,,,,,,,,,,,,,,,,,,,,,,,,,,,,,,5b2b03070ec82d0001d28898,5fb5d9ff8341131d1550ecf4,2020-11-18_23h36.36.213,Colour_Similarity_Experiment,2020.1.2,Win32,60,5fb5945709dec70f2d595766,,,,,,,,,,,,,,,,,,,,PF,,,,,,,,7,1.183,,,,,,,,,,,,,,,,,,,,,,,,,,,,9,27,53,1,0,0,response1disk,5,-4,-13,1,0,0,rectangle,-4,-13,1,0,0,7,0,"[144,66,198,304,162,26,176,248,142,139,248,171,153,288,34,134,235,166,189,41]",-4,-13,1,0,0,0,61,60,60,134,1,,,,,,,,,,,,,,,,,,,,,
,,,,,,,,,,,,,,,,,,,,,,,,,,,,,,,,,,,,,,,,,,,5b2b03070ec82d0001d28898,5fb5d9ff8341131d1550ecf4,2020-11-18_23h36.36.213,Colour_Similarity_Experiment,2020.1.2,Win32,60,5fb5945709dec70f2d595766,,,,,,,,,,,,,,,,,,,,PF,,,,,,,,6,2.468,,,,,,,,,,,,,,,,,,,,,,,,,,,,5,67,58,1,0,0,response1disk,8,-34,-8,1,0,0,rectangle,-34,-8,1,0,0,7,7,"[144,66,198,304,162,26,176,248,142,139,248,171,153,288,34,134,235,166,189,41]",-34,-8,1,0,0,0,62,61,61,149,1,,,,,,,,,,,,,,,,,,,,,
,,,,,,,,,,,,,,,,,,,,,,,,,,,,,,,,,,,,,,,,,,,5b2b03070ec82d0001d28898,5fb5d9ff8341131d1550ecf4,2020-11-18_23h36.36.213,Colour_Similarity_Experiment,2020.1.2,Win32,60,5fb5945709dec70f2d595766,,,,,,,,,,,,,,,,,,,,FF,,,,,,,,7,0.867,,,,,,,,,,,,,,,,,,,,,,,,,,,,7,38,72,1,0,0,response1disk,9,3,-17,1,0,0,rectangle,3,-17,1,0,0,7,4,"[144,66,198,304,162,26,176,248,142,139,248,171,153,288,34,134,235,166,189,41]",3,-17,1,0,0,0,63,62,62,155,1,,,,,,,,,,,,,,,,,,,,,
,,,,,,,,,,,,,,,,,,,,,,,,,,,,,,,,,,,,,,,,,,,5b2b03070ec82d0001d28898,5fb5d9ff8341131d1550ecf4,2020-11-18_23h36.36.213,Colour_Similarity_Experiment,2020.1.2,Win32,60,5fb5945709dec70f2d595766,,,,,,,,,,,,,,,,,,,,PF,,,,,,,,5,1.817,,,,,,,,,,,,,,,,,,,,,,,,,,,,7,56,-46,1,0,0,response3disk,8,-22,5,1,0,0,rectangle,-22,5,1,0,0,7,6,"[144,66,198,304,162,26,176,248,142,139,248,171,153,288,34,134,235,166,189,41]",-22,5,1,0,0,0,64,63,63,140,1,,,,,,,,,,,,,,,,,,,,,
,,,,,,,,,,,,,,,,,,,,,,,,,,,,,,,,,,,,,,,,,,,5b2b03070ec82d0001d28898,5fb5d9ff8341131d1550ecf4,2020-11-18_23h36.36.213,Colour_Similarity_Experiment,2020.1.2,Win32,60,5fb5945709dec70f2d595766,,,,,,,,,,,,,,,,,,,,FF,,,,,,,,5,1.364,,,,,,,,,,,,,,,,,,,,,,,,,,,,3,51,-33,1,0,0,response3disk,6,4,3,1,0,0,rectangle,4,3,1,0,0,7,2,"[144,66,198,304,162,26,176,248,142,139,248,171,153,288,34,134,235,166,189,41]",4,3,1,0,0,0,65,64,64,95,1,,,,,,,,,,,,,,,,,,,,,
,,,,,,,,,,,,,,,,,,,,,,,,,,,,,,,,,,,,,,,,,,,5b2b03070ec82d0001d28898,5fb5d9ff8341131d1550ecf4,2020-11-18_23h36.36.213,Colour_Similarity_Experiment,2020.1.2,Win32,60,5fb5945709dec70f2d595766,,,,,,,,,,,,,,,,,,,,FF,,,,,,,,7,1.535,,,,,,,,,,,,,,,,,,,,,,,,,,,,2,30,54,1,0,0,response1disk,7,-3,-6,1,0,0,rectangle,-84,46,1,0,0,1,1,"[144,66,198,304,162,26,176,248,142,139,248,171,153,288,34,134,235,166,189,41]",22,-2,1,0,0,0,66,65,65,63,1,response7disk_3,rectangle,,,,,,,,,,,,,,,,,,,
,,,,,,,,,,,,,,,,,,,,,,,,,,,,,,,,,,,,,,,,,,,5b2b03070ec82d0001d28898,5fb5d9ff8341131d1550ecf4,2020-11-18_23h36.36.213,Colour_Similarity_Experiment,2020.1.2,Win32,60,5fb5945709dec70f2d595766,,,,,,,,,,,,,,,,,,,,FF,,,,,,,,7,0.9,,,,,,,,,,,,,,,,,,,,,,,,,,,,4,34,88,1,0,0,response1disk,9,20,2,1,0,0,rectangle,20,2,1,0,0,1,3,"[144,66,198,304,162,26,176,248,142,139,248,171,153,288,34,134,235,166,189,41]",20,2,1,0,0,0,67,66,66,90,1,,,,,,,,,,,,,,,,,,,,,
,,,,,,,,,,,,,,,,,,,,,,,,,,,,,,,,,,,,,,,,,,,5b2b03070ec82d0001d28898,5fb5d9ff8341131d1550ecf4,2020-11-18_23h36.36.213,Colour_Similarity_Experiment,2020.1.2,Win32,60,5fb5945709dec70f2d595766,,,,,,,,,,,,,,,,,,,,PF,,,,,,,,7,1.07,,,,,,,,,,,,,,,,,,,,,,,,,,,,5,43,84,1,0,0,response1disk,9,12,0,1,0,0,rectangle,12,0,1,0,0,1,2,"[144,66,198,304,162,26,176,248,142,139,248,171,153,288,34,134,235,166,189,41]",12,0,1,0,0,0,68,67,67,136,1,,,,,,,,,,,,,,,,,,,,,
,,,,,,,,,,,,,,,,,,,,,,,,,,,,,,,,,,,,,,,,,,,5b2b03070ec82d0001d28898,5fb5d9ff8341131d1550ecf4,2020-11-18_23h36.36.213,Colour_Similarity_Experiment,2020.1.2,Win32,60,5fb5945709dec70f2d595766,,,,,,,,,,,,,,,,,,,,FF,,,,,,,,6,1.866,,,,,,,,,,,,,,,,,,,,,,,,,,,,1,94,34,1,0,0,response1disk,2,-4,6,1,0,0,rectangle,-4,6,1,0,0,1,1,"[144,66,198,304,162,26,176,248,142,139,248,171,153,288,34,134,235,166,189,41]",-4,6,1,0,0,0,69,68,68,2,1,,,,,,,,,,,,,,,,,,,,,
,,,,,,,,,,,,,,,,,,,,,,,,,,,,,,,,,,,,,,,,,,,5b2b03070ec82d0001d28898,5fb5d9ff8341131d1550ecf4,2020-11-18_23h36.36.213,Colour_Similarity_Experiment,2020.1.2,Win32,60,5fb5945709dec70f2d595766,,,,,,,,,,,,,,,,,,,,FF,,,,,,,,6,1.645,,,,,,,,,,,,,,,,,,,,,,,,,,,,8,66,34,1,0,0,response1disk,7,-8,2,1,0,0,rectangle,-8,2,1,0,0,1,2,"[144,66,198,304,162,26,176,248,142,139,248,171,153,288,34,134,235,166,189,41]",-8,2,1,0,0,0,70,69,69,86,1,,,,,,,,,,,,,,,,,,,,,
,,,,,,,,,,,,,,,,,,,,,,,,,,,,,,,,,,,,,,,,,,,5b2b03070ec82d0001d28898,5fb5d9ff8341131d1550ecf4,2020-11-18_23h36.36.213,Colour_Similarity_Experiment,2020.1.2,Win32,60,5fb5945709dec70f2d595766,,,,,,,,,,,,,,,,,,,,FF,,,,,,,,7,1.584,,,,,,,,,,,,,,,,,,,,,,,,,,,,4,34,81,1,0,0,response1disk,8,6,-4,1,0,0,rectangle,6,-4,1,0,0,1,6,"[144,66,198,304,162,26,176,248,142,139,248,171,153,288,34,134,235,166,189,41]",6,-4,1,0,0,0,71,70,70,35,1,,,,,,,,,,,,,,,,,,,,,
,,,,,,,,,,,,,,,,,,,,,,,,,,,,,,,,,,,,,,,,,,,5b2b03070ec82d0001d28898,5fb5d9ff8341131d1550ecf4,2020-11-18_23h36.36.213,Colour_Similarity_Experiment,2020.1.2,Win32,60,5fb5945709dec70f2d595766,,,,,,,,,,,,,,,,,,,,PF,,,,,,,,5,1.656,,,,,,,,,,,,,,,,,,,,,,,,,,,,9,101,-45,1,0,0,response3disk,1,17,7,1,0,0,rectangle,17,7,1,0,0,1,1,"[144,66,198,304,162,26,176,248,142,139,248,171,153,288,34,134,235,166,189,41]",17,7,1,0,0,0,72,71,71,74,1,,,,,,,,,,,,,,,,,,,,,
,,,,,,,,,,,,,,,,,,,,,,,,,,,,,,,,,,,,,,,,,,,5b2b03070ec82d0001d28898,5fb5d9ff8341131d1550ecf4,2020-11-18_23h36.36.213,Colour_Similarity_Experiment,2020.1.2,Win32,60,5fb5945709dec70f2d595766,,,,,,,,,,,,,,,,,,,,PF,,,,,,,,7,2.017,,,,,,,,,,,,,,,,,,,,,,,,,,,,6,25,53,1,0,0,response1disk,3,-11,-9,1,0,0,rectangle,-11,-9,1,0,0,1,1,"[144,66,198,304,162,26,176,248,142,139,248,171,153,288,34,134,235,166,189,41]",-11,-9,1,0,0,0,73,72,72,26,1,,,,,,,,,,,,,,,,,,,,,
,,,,,,,,,,,,,,,,,,,,,,,,,,,,,,,,,,,,,,,,,,,5b2b03070ec82d0001d28898,5fb5d9ff8341131d1550ecf4,2020-11-18_23h36.36.213,Colour_Similarity_Experiment,2020.1.2,Win32,60,5fb5945709dec70f2d595766,,,,,,,,,,,,,,,,,,,,FF,,,,,,,,6,2.965,,,,,,,,,,,,,,,,,,,,,,,,,,,,2,93,38,1,0,0,response1disk,1,-8,1,1,0,0,rectangle,-8,1,1,0,0,1,5,"[144,66,198,304,162,26,176,248,142,139,248,171,153,288,34,134,235,166,189,41]",-8,1,1,0,0,0,74,73,73,85,1,,,,,,,,,,,,,,,,,,,,,
,,,,,,,,,,,,,,,,,,,,,,,,,,,,,,,,,,,,,,,,,,,5b2b03070ec82d0001d28898,5fb5d9ff8341131d1550ecf4,2020-11-18_23h36.36.213,Colour_Similarity_Experiment,2020.1.2,Win32,60,5fb5945709dec70f2d595766,,,,,,,,,,,,,,,,,,,,PF,,,,,,,,2,3.084,,,,,,,,,,,,,,,,,,,,,,,,,,,,9,-98,-31,1,0,0,response5disk,9,-7,10,1,0,0,rectangle,-7,10,1,0,0,1,0,"[144,66,198,304,162,26,176,248,142,139,248,171,153,288,34,134,235,166,189,41]",-7,10,1,0,0,0,75,74,74,106,1,,,,,,,,,,,,,,,,,,,,,
,,,,,,,,,,,,,,,,,,,,,,,,,,,,,,,,,,,,,,,,,,,5b2b03070ec82d0001d28898,5fb5d9ff8341131d1550ecf4,2020-11-18_23h36.36.213,Colour_Similarity_Experiment,2020.1.2,Win32,60,5fb5945709dec70f2d595766,,,,,,,,,,,,,,,,,,,,FF,,,,,,,,7,1.854,,,,,,,,,,,,,,,,,,,,,,,,,,,,5,37,68,1,0,0,response1disk,9,4,-17,1,0,0,rectangle,4,-17,1,0,0,1,2,"[144,66,198,304,162,26,176,248,142,139,248,171,153,288,34,134,235,166,189,41]",4,-17,1,0,0,0,76,75,75,61,1,,,,,,,,,,,,,,,,,,,,,
,,,,,,,,,,,,,,,,,,,,,,,,,,,,,,,,,,,,,,,,,,,5b2b03070ec82d0001d28898,5fb5d9ff8341131d1550ecf4,2020-11-18_23h36.36.213,Colour_Similarity_Experiment,2020.1.2,Win32,60,5fb5945709dec70f2d595766,,,,,,,,,,,,,,,,,,,,PF,,,,,,,,7,1.199,,,,,,,,,,,,,,,,,,,,,,,,,,,,1,21,56,1,0,0,response1disk,4,-2,2,1,0,0,rectangle,-2,2,1,0,0,1,0,"[144,66,198,304,162,26,176,248,142,139,248,171,153,288,34,134,235,166,189,41]",-2,2,1,0,0,0,77,76,76,139,1,,,,,,,,,,,,,,,,,,,,,
,,,,,,,,,,,,,,,,,,,,,,,,,,,,,,,,,,,,,,,,,,,5b2b03070ec82d0001d28898,5fb5d9ff8341131d1550ecf4,2020-11-18_23h36.36.213,Colour_Similarity_Experiment,2020.1.2,Win32,60,5fb5945709dec70f2d595766,,,,,,,,,,,,,,,,,,,,PF,,,,,,,,7,1.25,,,,,,,,,,,,,,,,,,,,,,,,,,,,3,44,74,1,0,0,response1disk,9,9,14,1,0,0,rectangle,9,14,1,0,0,1,7,"[144,66,198,304,162,26,176,248,142,139,248,171,153,288,34,134,235,166,189,41]",9,14,1,0,0,0,78,77,77,79,1,,,,,,,,,,,,,,,,,,,,,
,,,,,,,,,,,,,,,,,,,,,,,,,,,,,,,,,,,,,,,,,,,5b2b03070ec82d0001d28898,5fb5d9ff8341131d1550ecf4,2020-11-18_23h36.36.213,Colour_Similarity_Experiment,2020.1.2,Win32,60,5fb5945709dec70f2d595766,,,,,,,,,,,,,,,,,,,,FF,,,,,,,,6,3.883,,,,,,,,,,,,,,,,,,,,,,,,,,,,6,94,55,1,0,0,response1disk,3,-1,5,1,0,0,rectangle,-1,5,1,0,0,1,0,"[144,66,198,304,162,26,176,248,142,139,248,171,153,288,34,134,235,166,189,41]",-1,5,1,0,0,0,79,78,78,21,1,,,,,,,,,,,,,,,,,,,,,
,,,,,,,,,,,,,,,,,,,,,,,,,,,,,,,,,,,,,,,,,,,5b2b03070ec82d0001d28898,5fb5d9ff8341131d1550ecf4,2020-11-18_23h36.36.213,Colour_Similarity_Experiment,2020.1.2,Win32,60,5fb5945709dec70f2d595766,,,,,,,,,,,,,,,,,,,,PF,,,,,,,,7,0.915,,,,,,,,,,,,,,,,,,,,,,,,,,,,8,40,60,1,0,0,response1disk,4,6,-5,1,0,0,rectangle,6,-5,1,0,0,1,3,"[144,66,198,304,162,26,176,248,142,139,248,171,153,288,34,134,235,166,189,41]",6,-5,1,0,0,0,80,79,79,78,1,,,,,,,,,,,,,,,,,,,,,
,,,,,,,,,,,,,,,,,,,,,,,,,,,,,,,,,,,,,,,,,,,5b2b03070ec82d0001d28898,5fb5d9ff8341131d1550ecf4,2020-11-18_23h36.36.213,Colour_Similarity_Experiment,2020.1.2,Win32,60,5fb5945709dec70f2d595766,,,,,,,,,,,,,,,,,,,,PF,,,,,,,,5,2.084,,,,,,,,,,,,,,,,,,,,,,,,,,,,5,70,-62,1,0,0,response3disk,4,-6,-2,1,0,0,rectangle,-6,-2,1,0,0,1,0,"[144,66,198,304,162,26,176,248,142,139,248,171,153,288,34,134,235,166,189,41]",-6,-2,1,0,0,0,81,80,80,54,1,,,,,,,,,,,,,,,,,,,,,
,,,,,,,,,,,,,,,,,,,,,,,,,,,,,,,,,,,,,,,,,,,5b2b03070ec82d0001d28898,5fb5d9ff8341131d1550ecf4,2020-11-18_23h36.36.213,Colour_Similarity_Experiment,2020.1.2,Win32,60,5fb5945709dec70f2d595766,,,,,,,,,,,,,,,,,,,,FF,,,,,,,,7,2.017,,,,,,,,,,,,,,,,,,,,,,,,,,,,8,47,65,1,0,0,response1disk,1,11,-7,1,0,0,rectangle,11,-7,1,0,0,1,7,"[144,66,198,304,162,26,176,248,142,139,248,171,153,288,34,134,235,166,189,41]",11,-7,1,0,0,0,82,81,81,20,1,,,,,,,,,,,,,,,,,,,,,
,,,,,,,,,,,,,,,,,,,,,,,,,,,,,,,,,,,,,,,,,,,5b2b03070ec82d0001d28898,5fb5d9ff8341131d1550ecf4,2020-11-18_23h36.36.213,Colour_Similarity_Experiment,2020.1.2,Win32,60,5fb5945709dec70f2d595766,,,,,,,,,,,,,,,,,,,,FF,,,,,,,,7,0.967,,,,,,,,,,,,,,,,,,,,,,,,,,,,1,38,49,1,0,0,response1disk,8,4,-3,1,0,0,rectangle,4,-3,1,0,0,1,6,"[144,66,198,304,162,26,176,248,142,139,248,171,153,288,34,134,235,166,189,41]",4,-3,1,0,0,0,83,82,82,27,1,,,,,,,,,,,,,,,,,,,,,
,,,,,,,,,,,,,,,,,,,,,,,,,,,,,,,,,,,,,,,,,,,5b2b03070ec82d0001d28898,5fb5d9ff8341131d1550ecf4,2020-11-18_23h36.36.213,Colour_Similarity_Experiment,2020.1.2,Win32,60,5fb5945709dec70f2d595766,,,,,,,,,,,,,,,,,,,,FF,,,,,,,,7,1.028,,,,,,,,,,,,,,,,,,,,,,,,,,,,3,22,49,1,0,0,response1disk,9,12,-2,1,0,0,rectangle,12,-2,1,0,0,1,1,"[144,66,198,304,162,26,176,248,142,139,248,171,153,288,34,134,235,166,189,41]",12,-2,1,0,0,0,84,83,83,143,1,,,,,,,,,,,,,,,,,,,,,
,,,,,,,,,,,,,,,,,,,,,,,,,,,,,,,,,,,,,,,,,,,5b2b03070ec82d0001d28898,5fb5d9ff8341131d1550ecf4,2020-11-18_23h36.36.213,Colour_Similarity_Experiment,2020.1.2,Win32,60,5fb5945709dec70f2d595766,,,,,,,,,,,,,,,,,,,,PF,,,,,,,,5,1.683,,,,,,,,,,,,,,,,,,,,,,,,,,,,7,91,-23,1,0,0,response3disk,5,25,6,1,0,0,rectangle,25,6,1,0,0,1,6,"[144,66,198,304,162,26,176,248,142,139,248,171,153,288,34,134,235,166,189,41]",25,6,1,0,0,0,85,84,84,92,1,,,,,,,,,,,,,,,,,,,,,
,,,,,,,,,,,,,,,,,,,,,,,,,,,,,,,,,,,,,,,,,,,5b2b03070ec82d0001d28898,5fb5d9ff8341131d1550ecf4,2020-11-18_23h36.36.213,Colour_Similarity_Experiment,2020.1.2,Win32,60,5fb5945709dec70f2d595766,,,,,,,,,,,,,,,,,,,,PF,,,,,,,,7,1.868,,,,,,,,,,,,,,,,,,,,,,,,,,,,2,27,54,1,0,0,response1disk,9,2,9,1,0,0,rectangle,2,9,1,0,0,1,7,"[144,66,198,304,162,26,176,248,142,139,248,171,153,288,34,134,235,166,189,41]",2,9,1,0,0,0,86,85,85,39,1,,,,,,,,,,,,,,,,,,,,,
,,,,,,,,,,,,,,,,,,,,,,,,,,,,,,,,,,,,,,,,,,,5b2b03070ec82d0001d28898,5fb5d9ff8341131d1550ecf4,2020-11-18_23h36.36.213,Colour_Similarity_Experiment,2020.1.2,Win32,60,5fb5945709dec70f2d595766,,,,,,,,,,,,,,,,,,,,FF,,,,,,,,6,1.24,,,,,,,,,,,,,,,,,,,,,,,,,,,,9,58,27,1,0,0,response1disk,1,21,6,1,0,0,rectangle,21,6,1,0,0,1,6,"[144,66,198,304,162,26,176,248,142,139,248,171,153,288,34,134,235,166,189,41]",21,6,1,0,0,0,87,86,86,111,1,,,,,,,,,,,,,,,,,,,,,
,,,,,,,,,,,,,,,,,,,,,,,,,,,,,,,,,,,,,,,,,,,5b2b03070ec82d0001d28898,5fb5d9ff8341131d1550ecf4,2020-11-18_23h36.36.213,Colour_Similarity_Experiment,2020.1.2,Win32,60,5fb5945709dec70f2d595766,,,,,,,,,,,,,,,,,,,,PF,,,,,,,,7,0.966,,,,,,,,,,,,,,,,,,,,,,,,,,,,6,22,34,1,0,0,response1disk,1,1,-3,1,0,0,rectangle,1,-3,1,0,0,1,7,"[144,66,198,304,162,26,176,248,142,139,248,171,153,288,34,134,235,166,189,41]",1,-3,1,0,0,0,88,87,87,46,1,,,,,,,,,,,,,,,,,,,,,
,,,,,,,,,,,,,,,,,,,,,,,,,,,,,,,,,,,,,,,,,,,5b2b03070ec82d0001d28898,5fb5d9ff8341131d1550ecf4,2020-11-18_23h36.36.213,Colour_Similarity_Experiment,2020.1.2,Win32,60,5fb5945709dec70f2d595766,,,,,,,,,,,,,,,,,,,,PF,,,,,,,,6,1.168,,,,,,,,,,,,,,,,,,,,,,,,,,,,8,56,32,1,0,0,response1disk,7,-11,3,1,0,0,rectangle,-11,3,1,0,0,1,4,"[144,66,198,304,162,26,176,248,142,139,248,171,153,288,34,134,235,166,189,41]",-11,3,1,0,0,0,89,88,88,23,1,,,,,,,,,,,,,,,,,,,,,
,,,,,,,,,,,,,,,,,,,,,,,,,,,,,,,,,,,,,,,,,,,5b2b03070ec82d0001d28898,5fb5d9ff8341131d1550ecf4,2020-11-18_23h36.36.213,Colour_Similarity_Experiment,2020.1.2,Win32,60,5fb5945709dec70f2d595766,,,,,,,,,,,,,,,,,,,,FF,,,,,,,,7,0.95,,,,,,,,,,,,,,,,,,,,,,,,,,,,4,22,50,1,0,0,response1disk,1,17,13,1,0,0,rectangle,17,13,1,0,0,1,5,"[144,66,198,304,162,26,176,248,142,139,248,171,153,288,34,134,235,166,189,41]",17,13,1,0,0,0,90,89,89,102,1,,,,,,,,,,,,,,,,,,,,,
,,,,,,,,,,,,,,,,,,,,,,,,,,,,,,,,,,,,,,,,,,,5b2b03070ec82d0001d28898,5fb5d9ff8341131d1550ecf4,2020-11-18_23h36.36.213,Colour_Similarity_Experiment,2020.1.2,Win32,60,5fb5945709dec70f2d595766,,,,,,,,,,,,,,,,,,,,FF,,,,,,,,7,1.183,,,,,,,,,,,,,,,,,,,,,,,,,,,,2,26,37,1,0,0,response1disk,6,14,6,1,0,0,rectangle,14,6,1,0,0,1,5,"[144,66,198,304,162,26,176,248,142,139,248,171,153,288,34,134,235,166,189,41]",14,6,1,0,0,0,91,90,90,40,1,,,,,,,,,,,,,,,,,,,,,
,,,,,,,,,,,,,,,,,,,,,,,,,,,,,,,,,,,,,,,,,,,5b2b03070ec82d0001d28898,5fb5d9ff8341131d1550ecf4,2020-11-18_23h36.36.213,Colour_Similarity_Experiment,2020.1.2,Win32,60,5fb5945709dec70f2d595766,,,,,,,,,,,,,,,,,,,,PF,,,,,,,,0,1.3,,,,,,,,,,,,,,,,,,,,,,,,,,,,4,-42,55,1,0,0,response7disk,4,-1,-3,1,0,0,rectangle,-1,-3,1,0,0,1,5,"[144,66,198,304,162,26,176,248,142,139,248,171,153,288,34,134,235,166,189,41]",-1,-3,1,0,0,0,92,91,91,70,1,,,,,,,,,,,,,,,,,,,,,
,,,,,,,,,,,,,,,,,,,,,,,,,,,,,,,,,,,,,,,,,,,5b2b03070ec82d0001d28898,5fb5d9ff8341131d1550ecf4,2020-11-18_23h36.36.213,Colour_Similarity_Experiment,2020.1.2,Win32,60,5fb5945709dec70f2d595766,,,,,,,,,,,,,,,,,,,,PF,,,,,,,,6,1.401,,,,,,,,,,,,,,,,,,,,,,,,,,,,4,67,38,1,0,0,response1disk,6,-6,9,1,0,0,rectangle,-6,9,1,0,0,1,2,"[144,66,198,304,162,26,176,248,142,139,248,171,153,288,34,134,235,166,189,41]",-6,9,1,0,0,0,93,92,92,120,1,,,,,,,,,,,,,,,,,,,,,
,,,,,,,,,,,,,,,,,,,,,,,,,,,,,,,,,,,,,,,,,,,5b2b03070ec82d0001d28898,5fb5d9ff8341131d1550ecf4,2020-11-18_23h36.36.213,Colour_Similarity_Experiment,2020.1.2,Win32,60,5fb5945709dec70f2d595766,,,,,,,,,,,,,,,,,,,,FF,,,,,,,,4,1.618,,,,,,,,,,,,,,,,,,,,,,,,,,,,5,38,-70,1,0,0,response3disk,4,-10,2,1,0,0,rectangle,-10,2,1,0,0,1,4,"[144,66,198,304,162,26,176,248,142,139,248,171,153,288,34,134,235,166,189,41]",-10,2,1,0,0,0,94,93,93,8,1,,,,,,,,,,,,,,,,,,,,,
,,,,,,,,,,,,,,,,,,,,,,,,,,,,,,,,,,,,,,,,,,,5b2b03070ec82d0001d28898,5fb5d9ff8341131d1550ecf4,2020-11-18_23h36.36.213,Colour_Similarity_Experiment,2020.1.2,Win32,60,5fb5945709dec70f2d595766,,,,,,,,,,,,,,,,,,,,PF,,,,,,,,7,2.663,,,,,,,,,,,,,,,,,,,,,,,,,,,,5,30,43,1,0,0,response1disk,2,-7,-10,1,0,0,rectangle,-7,-10,1,0,0,1,6,"[144,66,198,304,162,26,176,248,142,139,248,171,153,288,34,134,235,166,189,41]",-7,-10,1,0,0,0,95,94,94,129,1,,,,,,,,,,,,,,,,,,,,,
,,,,,,,,,,,,,,,,,,,,,,,,,,,,,,,,,,,,,,,,,,,5b2b03070ec82d0001d28898,5fb5d9ff8341131d1550ecf4,2020-11-18_23h36.36.213,Colour_Similarity_Experiment,2020.1.2,Win32,60,5fb5945709dec70f2d595766,,,,,,,,,,,,,,,,,,,,PF,,,,,,,,0,1.4,,,,,,,,,,,,,,,,,,,,,,,,,,,,7,-39,54,1,0,0,response7disk,7,11,-9,1,0,0,rectangle,11,-9,1,0,0,1,2,"[144,66,198,304,162,26,176,248,142,139,248,171,153,288,34,134,235,166,189,41]",11,-9,1,0,0,0,96,95,95,51,1,,,,,,,,,,,,,,,,,,,,,
,,,,,,,,,,,,,,,,,,,,,,,,,,,,,,,,,,,,,,,,,,,5b2b03070ec82d0001d28898,5fb5d9ff8341131d1550ecf4,2020-11-18_23h36.36.213,Colour_Similarity_Experiment,2020.1.2,Win32,60,5fb5945709dec70f2d595766,,,,,,,,,,,,,,,,,,,,PF,,,,,,,,5,2.768,,,,,,,,,,,,,,,,,,,,,,,,,,,,8,107,-46,1,0,0,response3disk,9,16,-2,1,0,0,rectangle,16,-2,1,0,0,1,4,"[144,66,198,304,162,26,176,248,142,139,248,171,153,288,34,134,235,166,189,41]",16,-2,1,0,0,0,97,96,96,42,1,,,,,,,,,,,,,,,,,,,,,
,,,,,,,,,,,,,,,,,,,,,,,,,,,,,,,,,,,,,,,,,,,5b2b03070ec82d0001d28898,5fb5d9ff8341131d1550ecf4,2020-11-18_23h36.36.213,Colour_Similarity_Experiment,2020.1.2,Win32,60,5fb5945709dec70f2d595766,,,,,,,,,,,,,,,,,,,,FF,,,,,,,,0,1.368,,,,,,,,,,,,,,,,,,,,,,,,,,,,1,-66,74,1,0,0,response7disk,1,7,5,1,0,0,rectangle,7,5,1,0,0,1,7,"[144,66,198,304,162,26,176,248,142,139,248,171,153,288,34,134,235,166,189,41]",7,5,1,0,0,0,98,97,97,151,1,,,,,,,,,,,,,,,,,,,,,
,,,,,,,,,,,,,,,,,,,,,,,,,,,,,,,,,,,,,,,,,,,5b2b03070ec82d0001d28898,5fb5d9ff8341131d1550ecf4,2020-11-18_23h36.36.213,Colour_Similarity_Experiment,2020.1.2,Win32,60,5fb5945709dec70f2d595766,,,,,,,,,,,,,,,,,,,,FF,,,,,,,,7,0.901,,,,,,,,,,,,,,,,,,,,,,,,,,,,2,30,66,1,0,0,response1disk,4,1,-14,1,0,0,rectangle,1,-14,1,0,0,1,1,"[144,66,198,304,162,26,176,248,142,139,248,171,153,288,34,134,235,166,189,41]",1,-14,1,0,0,0,99,98,98,145,1,,,,,,,,,,,,,,,,,,,,,
,,,,,,,,,,,,,,,,,,,,,,,,,,,,,,,,,,,,,,,,,,,5b2b03070ec82d0001d28898,5fb5d9ff8341131d1550ecf4,2020-11-18_23h36.36.213,Colour_Similarity_Experiment,2020.1.2,Win32,60,5fb5945709dec70f2d595766,,,,,,,,,,,,,,,,,,,,PF,,,,,,,,1,2.849,,,,,,,,,,,,,,,,,,,,,,,,,,,,8,-84,31,1,0,0,response7disk,8,-16,-4,1,0,0,rectangle,-16,-4,1,0,0,1,1,"[144,66,198,304,162,26,176,248,142,139,248,171,153,288,34,134,235,166,189,41]",-16,-4,1,0,0,0,100,99,99,153,1,,,,,,,,,,,,,,,,,,,,,
,,,,,,,,,,,,,,,,,,,,,,,,,,,,,,,,,,,,,,,,,,,5b2b03070ec82d0001d28898,5fb5d9ff8341131d1550ecf4,2020-11-18_23h36.36.213,Colour_Similarity_Experiment,2020.1.2,Win32,60,5fb5945709dec70f2d595766,,,,,,,,,,,,,,,,,,,,FF,,,,,,,,7,0.934,,,,,,,,,,,,,,,,,,,,,,,,,,,,8,46,47,1,0,0,response1disk,4,-4,-6,1,0,0,rectangle,-4,-6,1,0,0,1,1,"[144,66,198,304,162,26,176,248,142,139,248,171,153,288,34,134,235,166,189,41]",-4,-6,1,0,0,0,101,100,100,88,1,,,,,,,,,,,,,,,,,,,,,
,,,,,,,,,,,,,,,,,,,,,,,,,,,,,,,,,,,,,,,,,,,5b2b03070ec82d0001d28898,5fb5d9ff8341131d1550ecf4,2020-11-18_23h36.36.213,Colour_Similarity_Experiment,2020.1.2,Win32,60,5fb5945709dec70f2d595766,,,,,,,,,,,,,,,,,,,,FF,,,,,,,,7,1.134,,,,,,,,,,,,,,,,,,,,,,,,,,,,7,22,54,1,0,0,response1disk,2,13,8,1,0,0,rectangle,13,8,1,0,0,1,3,"[144,66,198,304,162,26,176,248,142,139,248,171,153,288,34,134,235,166,189,41]",13,8,1,0,0,0,102,101,101,138,1,,,,,,,,,,,,,,,,,,,,,
,,,,,,,,,,,,,,,,,,,,,,,,,,,,,,,,,,,,,,,,,,,5b2b03070ec82d0001d28898,5fb5d9ff8341131d1550ecf4,2020-11-18_23h36.36.213,Colour_Similarity_Experiment,2020.1.2,Win32,60,5fb5945709dec70f2d595766,,,,,,,,,,,,,,,,,,,,PF,,,,,,,,5,1.7,,,,,,,,,,,,,,,,,,,,,,,,,,,,3,99,-38,1,0,0,response3disk,5,2,2,1,0,0,rectangle,2,2,1,0,0,1,0,"[144,66,198,304,162,26,176,248,142,139,248,171,153,288,34,134,235,166,189,41]",2,2,1,0,0,0,103,102,102,66,1,,,,,,,,,,,,,,,,,,,,,
,,,,,,,,,,,,,,,,,,,,,,,,,,,,,,,,,,,,,,,,,,,5b2b03070ec82d0001d28898,5fb5d9ff8341131d1550ecf4,2020-11-18_23h36.36.213,Colour_Similarity_Experiment,2020.1.2,Win32,60,5fb5945709dec70f2d595766,,,,,,,,,,,,,,,,,,,,FF,,,,,,,,7,0.91,,,,,,,,,,,,,,,,,,,,,,,,,,,,9,25,63,1,0,0,response1disk,3,6,10,1,0,0,rectangle,6,10,1,0,0,1,3,"[144,66,198,304,162,26,176,248,142,139,248,171,153,288,34,134,235,166,189,41]",6,10,1,0,0,0,104,103,103,141,1,,,,,,,,,,,,,,,,,,,,,
,,,,,,,,,,,,,,,,,,,,,,,,,,,,,,,,,,,,,,,,,,,5b2b03070ec82d0001d28898,5fb5d9ff8341131d1550ecf4,2020-11-18_23h36.36.213,Colour_Similarity_Experiment,2020.1.2,Win32,60,5fb5945709dec70f2d595766,,,,,,,,,,,,,,,,,,,,PF,,,,,,,,7,0.917,,,,,,,,,,,,,,,,,,,,,,,,,,,,2,28,38,1,0,0,response1disk,5,13,4,1,0,0,rectangle,13,4,1,0,0,1,6,"[144,66,198,304,162,26,176,248,142,139,248,171,153,288,34,134,235,166,189,41]",13,4,1,0,0,0,105,104,104,147,1,,,,,,,,,,,,,,,,,,,,,
,,,,,,,,,,,,,,,,,,,,,,,,,,,,,,,,,,,,,,,,,,,5b2b03070ec82d0001d28898,5fb5d9ff8341131d1550ecf4,2020-11-18_23h36.36.213,Colour_Similarity_Experiment,2020.1.2,Win32,60,5fb5945709dec70f2d595766,,,,,,,,,,,,,,,,,,,,PF,,,,,,,,7,0.718,,,,,,,,,,,,,,,,,,,,,,,,,,,,4,35,41,1,0,0,response1disk,1,14,2,1,0,0,rectangle,14,2,1,0,0,1,2,"[144,66,198,304,162,26,176,248,142,139,248,171,153,288,34,134,235,166,189,41]",14,2,1,0,0,0,106,105,105,115,1,,,,,,,,,,,,,,,,,,,,,
,,,,,,,,,,,,,,,,,,,,,,,,,,,,,,,,,,,,,,,,,,,5b2b03070ec82d0001d28898,5fb5d9ff8341131d1550ecf4,2020-11-18_23h36.36.213,Colour_Similarity_Experiment,2020.1.2,Win32,60,5fb5945709dec70f2d595766,,,,,,,,,,,,,,,,,,,,PF,,,,,,,,7,0.782,,,,,,,,,,,,,,,,,,,,,,,,,,,,7,28,67,1,0,0,response1disk,1,10,8,1,0,0,rectangle,10,8,1,0,0,1,7,"[144,66,198,304,162,26,176,248,142,139,248,171,153,288,34,134,235,166,189,41]",10,8,1,0,0,0,107,106,106,53,1,,,,,,,,,,,,,,,,,,,,,
,,,,,,,,,,,,,,,,,,,,,,,,,,,,,,,,,,,,,,,,,,,5b2b03070ec82d0001d28898,5fb5d9ff8341131d1550ecf4,2020-11-18_23h36.36.213,Colour_Similarity_Experiment,2020.1.2,Win32,60,5fb5945709dec70f2d595766,,,,,,,,,,,,,,,,,,,,FF,,,,,,,,7,2.482,,,,,,,,,,,,,,,,,,,,,,,,,,,,2,32,58,1,0,0,response1disk,8,8,2,1,0,0,rectangle,8,2,1,0,0,1,4,"[144,66,198,304,162,26,176,248,142,139,248,171,153,288,34,134,235,166,189,41]",8,2,1,0,0,0,108,107,107,62,1,,,,,,,,,,,,,,,,,,,,,
,,,,,,,,,,,,,,,,,,,,,,,,,,,,,,,,,,,,,,,,,,,5b2b03070ec82d0001d28898,5fb5d9ff8341131d1550ecf4,2020-11-18_23h36.36.213,Colour_Similarity_Experiment,2020.1.2,Win32,60,5fb5945709dec70f2d595766,,,,,,,,,,,,,,,,,,,,PF,,,,,,,,1,2.132,,,,,,,,,,,,,,,,,,,,,,,,,,,,6,-72,45,1,0,0,response7disk,6,26,-2,1,0,0,rectangle,26,-2,1,0,0,1,6,"[144,66,198,304,162,26,176,248,142,139,248,171,153,288,34,134,235,166,189,41]",26,-2,1,0,0,0,109,108,108,0,1,,,,,,,,,,,,,,,,,,,,,
,,,,,,,,,,,,,,,,,,,,,,,,,,,,,,,,,,,,,,,,,,,5b2b03070ec82d0001d28898,5fb5d9ff8341131d1550ecf4,2020-11-18_23h36.36.213,Colour_Similarity_Experiment,2020.1.2,Win32,60,5fb5945709dec70f2d595766,,,,,,,,,,,,,,,,,,,,FF,,,,,,,,0,0.852,,,,,,,,,,,,,,,,,,,,,,,,,,,,2,-28,81,1,0,0,response7disk,2,11,4,1,0,0,rectangle,11,4,1,0,0,1,6,"[144,66,198,304,162,26,176,248,142,139,248,171,153,288,34,134,235,166,189,41]",11,4,1,0,0,0,110,109,109,142,1,,,,,,,,,,,,,,,,,,,,,
,,,,,,,,,,,,,,,,,,,,,,,,,,,,,,,,,,,,,,,,,,,5b2b03070ec82d0001d28898,5fb5d9ff8341131d1550ecf4,2020-11-18_23h36.36.213,Colour_Similarity_Experiment,2020.1.2,Win32,60,5fb5945709dec70f2d595766,,,,,,,,,,,,,,,,,,,,FF,,,,,,,,0,1.648,,,,,,,,,,,,,,,,,,,,,,,,,,,,5,-30,56,1,0,0,response7disk,5,-6,7,1,0,0,rectangle,-6,7,1,0,0,1,3,"[144,66,198,304,162,26,176,248,142,139,248,171,153,288,34,134,235,166,189,41]",-6,7,1,0,0,0,111,110,110,19,1,,,,,,,,,,,,,,,,,,,,,
,,,,,,,,,,,,,,,,,,,,,,,,,,,,,,,,,,,,,,,,,,,5b2b03070ec82d0001d28898,5fb5d9ff8341131d1550ecf4,2020-11-18_23h36.36.213,Colour_Similarity_Experiment,2020.1.2,Win32,60,5fb5945709dec70f2d595766,,,,,,,,,,,,,,,,,,,,FF,,,,,,,,7,0.849,,,,,,,,,,,,,,,,,,,,,,,,,,,,9,34,78,1,0,0,response1disk,7,6,2,1,0,0,rectangle,6,2,1,0,0,1,3,"[144,66,198,304,162,26,176,248,142,139,248,171,153,288,34,134,235,166,189,41]",6,2,1,0,0,0,112,111,111,100,1,,,,,,,,,,,,,,,,,,,,,
,,,,,,,,,,,,,,,,,,,,,,,,,,,,,,,,,,,,,,,,,,,5b2b03070ec82d0001d28898,5fb5d9ff8341131d1550ecf4,2020-11-18_23h36.36.213,Colour_Similarity_Experiment,2020.1.2,Win32,60,5fb5945709dec70f2d595766,,,,,,,,,,,,,,,,,,,,PF,,,,,,,,3,1.866,,,,,,,,,,,,,,,,,,,,,,,,,,,,4,-30,-78,1,0,0,response5disk,5,5,14,1,0,0,rectangle,5,14,1,0,0,1,5,"[144,66,198,304,162,26,176,248,142,139,248,171,153,288,34,134,235,166,189,41]",5,14,1,0,0,0,113,112,112,49,1,,,,,,,,,,,,,,,,,,,,,
,,,,,,,,,,,,,,,,,,,,,,,,,,,,,,,,,,,,,,,,,,,5b2b03070ec82d0001d28898,5fb5d9ff8341131d1550ecf4,2020-11-18_23h36.36.213,Colour_Similarity_Experiment,2020.1.2,Win32,60,5fb5945709dec70f2d595766,,,,,,,,,,,,,,,,,,,,PF,,,,,,,,7,0.882,,,,,,,,,,,,,,,,,,,,,,,,,,,,2,41,64,1,0,0,response1disk,7,0,-5,1,0,0,rectangle,0,-5,1,0,0,1,2,"[144,66,198,304,162,26,176,248,142,139,248,171,153,288,34,134,235,166,189,41]",0,-5,1,0,0,0,114,113,113,107,1,,,,,,,,,,,,,,,,,,,,,
,,,,,,,,,,,,,,,,,,,,,,,,,,,,,,,,,,,,,,,,,,,5b2b03070ec82d0001d28898,5fb5d9ff8341131d1550ecf4,2020-11-18_23h36.36.213,Colour_Similarity_Experiment,2020.1.2,Win32,60,5fb5945709dec70f2d595766,,,,,,,,,,,,,,,,,,,,PF,,,,,,,,5,1.117,,,,,,,,,,,,,,,,,,,,,,,,,,,,8,90,-49,1,0,0,response3disk,6,3,-6,1,0,0,rectangle,3,-6,1,0,0,1,2,"[144,66,198,304,162,26,176,248,142,139,248,171,153,288,34,134,235,166,189,41]",3,-6,1,0,0,0,115,114,114,161,1,,,,,,,,,,,,,,,,,,,,,
,,,,,,,,,,,,,,,,,,,,,,,,,,,,,,,,,,,,,,,,,,,5b2b03070ec82d0001d28898,5fb5d9ff8341131d1550ecf4,2020-11-18_23h36.36.213,Colour_Similarity_Experiment,2020.1.2,Win32,60,5fb5945709dec70f2d595766,,,,,,,,,,,,,,,,,,,,FF,,,,,,,,7,1.25,,,,,,,,,,,,,,,,,,,,,,,,,,,,2,33,94,1,0,0,response1disk,9,4,5,1,0,0,rectangle,4,5,1,0,0,1,0,"[144,66,198,304,162,26,176,248,142,139,248,171,153,288,34,134,235,166,189,41]",4,5,1,0,0,0,116,115,115,72,1,,,,,,,,,,,,,,,,,,,,,
,,,,,,,,,,,,,,,,,,,,,,,,,,,,,,,,,,,,,,,,,,,5b2b03070ec82d0001d28898,5fb5d9ff8341131d1550ecf4,2020-11-18_23h36.36.213,Colour_Similarity_Experiment,2020.1.2,Win32,60,5fb5945709dec70f2d595766,,,,,,,,,,,,,,,,,,,,FF,,,,,,,,7,0.784,,,,,,,,,,,,,,,,,,,,,,,,,,,,3,28,62,1,0,0,response1disk,7,9,5,1,0,0,rectangle,9,5,1,0,0,1,0,"[144,66,198,304,162,26,176,248,142,139,248,171,153,288,34,134,235,166,189,41]",9,5,1,0,0,0,117,116,116,118,1,,,,,,,,,,,,,,,,,,,,,
,,,,,,,,,,,,,,,,,,,,,,,,,,,,,,,,,,,,,,,,,,,5b2b03070ec82d0001d28898,5fb5d9ff8341131d1550ecf4,2020-11-18_23h36.36.213,Colour_Similarity_Experiment,2020.1.2,Win32,60,5fb5945709dec70f2d595766,,,,,,,,,,,,,,,,,,,,PF,,,,,,,,5,1.285,,,,,,,,,,,,,,,,,,,,,,,,,,,,6,74,-29,1,0,0,response3disk,5,5,10,1,0,0,rectangle,5,10,1,0,0,1,4,"[144,66,198,304,162,26,176,248,142,139,248,171,153,288,34,134,235,166,189,41]",5,10,1,0,0,0,118,117,117,59,1,,,,,,,,,,,,,,,,,,,,,
,,,,,,,,,,,,,,,,,,,,,,,,,,,,,,,,,,,,,,,,,,,5b2b03070ec82d0001d28898,5fb5d9ff8341131d1550ecf4,2020-11-18_23h36.36.213,Colour_Similarity_Experiment,2020.1.2,Win32,60,5fb5945709dec70f2d595766,,,,,,,,,,,,,,,,,,,,PF,,,,,,,,1,2.299,,,,,,,,,,,,,,,,,,,,,,,,,,,,1,-58,35,1,0,0,response7disk,1,17,-12,1,0,0,rectangle,17,-12,1,0,0,1,1,"[144,66,198,304,162,26,176,248,142,139,248,171,153,288,34,134,235,166,189,41]",17,-12,1,0,0,0,119,118,118,76,1,,,,,,,,,,,,,,,,,,,,,
,,,,,,,,,,,,,,,,,,,,,,,,,,,,,,,,,,,,,,,,,,,5b2b03070ec82d0001d28898,5fb5d9ff8341131d1550ecf4,2020-11-18_23h36.36.213,Colour_Similarity_Experiment,2020.1.2,Win32,60,5fb5945709dec70f2d595766,,,,,,,,,,,,,,,,,,,,PF,,,,,,,,5,1.101,,,,,,,,,,,,,,,,,,,,,,,,,,,,9,73,-40,1,0,0,response3disk,8,1,-4,1,0,0,rectangle,1,-4,1,0,0,1,4,"[144,66,198,304,162,26,176,248,142,139,248,171,153,288,34,134,235,166,189,41]",1,-4,1,0,0,0,120,119,119,67,1,,,,,,,,,,,,,,,,,,,,,
,,,,,,,,,,,,,,,,,,,,,,,,,,,,,,,,,,,,,,,,,,,5b2b03070ec82d0001d28898,5fb5d9ff8341131d1550ecf4,2020-11-18_23h36.36.213,Colour_Similarity_Experiment,2020.1.2,Win32,60,5fb5945709dec70f2d595766,,,,,,,,,,,,,,,,,,,,FF,,,,,,,,7,0.851,,,,,,,,,,,,,,,,,,,,,,,,,,,,5,27,55,1,0,0,response1disk,2,5,-2,1,0,0,rectangle,5,-2,1,0,0,1,0,"[144,66,198,304,162,26,176,248,142,139,248,171,153,288,34,134,235,166,189,41]",5,-2,1,0,0,0,121,120,120,55,1,,,,,,,,,,,,,,,,,,,,,
,,,,,,,,,,,,,,,,,,,,,,,,,,,,,,,,,,,,,,,,,,,5b2b03070ec82d0001d28898,5fb5d9ff8341131d1550ecf4,2020-11-18_23h36.36.213,Colour_Similarity_Experiment,2020.1.2,Win32,60,5fb5945709dec70f2d595766,,,,,,,,,,,,,,,,,,,,PF,,,,,,,,7,0.884,,,,,,,,,,,,,,,,,,,,,,,,,,,,2,26,44,1,0,0,response1disk,8,8,-11,1,0,0,rectangle,8,-11,1,0,0,1,3,"[144,66,198,304,162,26,176,248,142,139,248,171,153,288,34,134,235,166,189,41]",8,-11,1,0,0,0,122,121,121,52,1,,,,,,,,,,,,,,,,,,,,,
,,,,,,,,,,,,,,,,,,,,,,,,,,,,,,,,,,,,,,,,,,,5b2b03070ec82d0001d28898,5fb5d9ff8341131d1550ecf4,2020-11-18_23h36.36.213,Colour_Similarity_Experiment,2020.1.2,Win32,60,5fb5945709dec70f2d595766,,,,,,,,,,,,,,,,,,,,FF,,,,,,,,6,0.983,,,,,,,,,,,,,,,,,,,,,,,,,,,,1,60,27,1,0,0,response1disk,9,-10,11,1,0,0,rectangle,-10,11,1,0,0,1,3,"[144,66,198,304,162,26,176,248,142,139,248,171,153,288,34,134,235,166,189,41]",-10,11,1,0,0,0,123,122,122,123,1,,,,,,,,,,,,,,,,,,,,,
,,,,,,,,,,,,,,,,,,,,,,,,,,,,,,,,,,,,,,,,,,,5b2b03070ec82d0001d28898,5fb5d9ff8341131d1550ecf4,2020-11-18_23h36.36.213,Colour_Similarity_Experiment,2020.1.2,Win32,60,5fb5945709dec70f2d595766,,,,,,,,,,,,,,,,,,,,PF,,,,,,,,6,1.151,,,,,,,,,,,,,,,,,,,,,,,,,,,,1,54,33,1,0,0,response1disk,9,-10,-2,1,0,0,rectangle,-10,-2,1,0,0,1,5,"[144,66,198,304,162,26,176,248,142,139,248,171,153,288,34,134,235,166,189,41]",-10,-2,1,0,0,0,124,123,123,15,1,,,,,,,,,,,,,,,,,,,,,
,,,,,,,,,,,,,,,,,,,,,,,,,,,,,,,,,,,,,,,,,,,5b2b03070ec82d0001d28898,5fb5d9ff8341131d1550ecf4,2020-11-18_23h36.36.213,Colour_Similarity_Experiment,2020.1.2,Win32,60,5fb5945709dec70f2d595766,,,,,,,,,,,,,,,,,,,,FF,,,,,,,,7,2.815,,,,,,,,,,,,,,,,,,,,,,,,,,,,6,31,50,1,0,0,response1disk,2,16,-8,1,0,0,rectangle,16,-8,1,0,0,1,2,"[144,66,198,304,162,26,176,248,142,139,248,171,153,288,34,134,235,166,189,41]",16,-8,1,0,0,0,125,124,124,112,1,,,,,,,,,,,,,,,,,,,,,
,,,,,,,,,,,,,,,,,,,,,,,,,,,,,,,,,,,,,,,,,,,5b2b03070ec82d0001d28898,5fb5d9ff8341131d1550ecf4,2020-11-18_23h36.36.213,Colour_Similarity_Experiment,2020.1.2,Win32,60,5fb5945709dec70f2d595766,,,,,,,,,,,,,,,,,,,,FF,,,,,,,,6,2.416,,,,,,,,,,,,,,,,,,,,,,,,,,,,9,64,32,1,0,0,response1disk,8,-6,-2,1,0,0,rectangle,-6,-2,1,0,0,1,4,"[144,66,198,304,162,26,176,248,142,139,248,171,153,288,34,134,235,166,189,41]",-6,-2,1,0,0,0,126,125,125,6,1,,,,,,,,,,,,,,,,,,,,,
,,,,,,,,,,,,,,,,,,,,,,,,,,,,,,,,,,,,,,,,,,,5b2b03070ec82d0001d28898,5fb5d9ff8341131d1550ecf4,2020-11-18_23h36.36.213,Colour_Similarity_Experiment,2020.1.2,Win32,60,5fb5945709dec70f2d595766,,,,,,,,,,,,,,,,,,,,FF,,,,,,,,7,1.016,,,,,,,,,,,,,,,,,,,,,,,,,,,,2,28,64,1,0,0,response1disk,5,8,3,1,0,0,rectangle,8,3,1,0,0,1,1,"[144,66,198,304,162,26,176,248,142,139,248,171,153,288,34,134,235,166,189,41]",8,3,1,0,0,0,127,126,126,80,1,,,,,,,,,,,,,,,,,,,,,
,,,,,,,,,,,,,,,,,,,,,,,,,,,,,,,,,,,,,,,,,,,5b2b03070ec82d0001d28898,5fb5d9ff8341131d1550ecf4,2020-11-18_23h36.36.213,Colour_Similarity_Experiment,2020.1.2,Win32,60,5fb5945709dec70f2d595766,,,,,,,,,,,,,,,,,,,,FF,,,,,,,,4,1.7,,,,,,,,,,,,,,,,,,,,,,,,,,,,6,60,-86,1,0,0,response3disk,7,7,1,1,0,0,rectangle,7,1,1,0,0,1,7,"[144,66,198,304,162,26,176,248,142,139,248,171,153,288,34,134,235,166,189,41]",7,1,1,0,0,0,128,127,127,18,1,,,,,,,,,,,,,,,,,,,,,
,,,,,,,,,,,,,,,,,,,,,,,,,,,,,,,,,,,,,,,,,,,5b2b03070ec82d0001d28898,5fb5d9ff8341131d1550ecf4,2020-11-18_23h36.36.213,Colour_Similarity_Experiment,2020.1.2,Win32,60,5fb5945709dec70f2d595766,,,,,,,,,,,,,,,,,,,,PF,,,,,,,,7,0.816,,,,,,,,,,,,,,,,,,,,,,,,,,,,1,36,82,1,0,0,response1disk,3,6,8,1,0,0,rectangle,6,8,1,0,0,1,2,"[144,66,198,304,162,26,176,248,142,139,248,171,153,288,34,134,235,166,189,41]",6,8,1,0,0,0,129,128,128,1,1,,,,,,,,,,,,,,,,,,,,,
,,,,,,,,,,,,,,,,,,,,,,,,,,,,,,,,,,,,,,,,,,,5b2b03070ec82d0001d28898,5fb5d9ff8341131d1550ecf4,2020-11-18_23h36.36.213,Colour_Similarity_Experiment,2020.1.2,Win32,60,5fb5945709dec70f2d595766,,,,,,,,,,,,,,,,,,,,FF,,,,,,,,5,1.566,,,,,,,,,,,,,,,,,,,,,,,,,,,,6,81,-36,1,0,0,response3disk,5,10,0,1,0,0,rectangle,10,0,1,0,0,1,5,"[144,66,198,304,162,26,176,248,142,139,248,171,153,288,34,134,235,166,189,41]",10,0,1,0,0,0,130,129,129,126,1,,,,,,,,,,,,,,,,,,,,,
,,,,,,,,,,,,,,,,,,,,,,,,,,,,,,,,,,,,,,,,,,,5b2b03070ec82d0001d28898,5fb5d9ff8341131d1550ecf4,2020-11-18_23h36.36.213,Colour_Similarity_Experiment,2020.1.2,Win32,60,5fb5945709dec70f2d595766,,,,,,,,,,,,,,,,,,,,PF,,,,,,,,5,1.516,,,,,,,,,,,,,,,,,,,,,,,,,,,,7,40,-30,1,0,0,response3disk,6,2,-6,1,0,0,rectangle,2,-6,1,0,0,1,4,"[144,66,198,304,162,26,176,248,142,139,248,171,153,288,34,134,235,166,189,41]",2,-6,1,0,0,0,131,130,130,29,1,,,,,,,,,,,,,,,,,,,,,
,,,,,,,,,,,,,,,,,,,,,,,,,,,,,,,,,,,,,,,,,,,5b2b03070ec82d0001d28898,5fb5d9ff8341131d1550ecf4,2020-11-18_23h36.36.213,Colour_Similarity_Experiment,2020.1.2,Win32,60,5fb5945709dec70f2d595766,,,,,,,,,,,,,,,,,,,,FF,,,,,,,,6,1.433,,,,,,,,,,,,,,,,,,,,,,,,,,,,7,51,27,1,0,0,response1disk,5,-16,-2,1,0,0,rectangle,-16,-2,1,0,0,1,0,"[144,66,198,304,162,26,176,248,142,139,248,171,153,288,34,134,235,166,189,41]",-16,-2,1,0,0,0,132,131,131,156,1,,,,,,,,,,,,,,,,,,,,,
,,,,,,,,,,,,,,,,,,,,,,,,,,,,,,,,,,,,,,,,,,,5b2b03070ec82d0001d28898,5fb5d9ff8341131d1550ecf4,2020-11-18_23h36.36.213,Colour_Similarity_Experiment,2020.1.2,Win32,60,5fb5945709dec70f2d595766,,,,,,,,,,,,,,,,,,,,FF,,,,,,,,4,1.602,,,,,,,,,,,,,,,,,,,,,,,,,,,,3,25,-61,1,0,0,response3disk,5,-2,-7,1,0,0,rectangle,-2,-7,1,0,0,1,7,"[144,66,198,304,162,26,176,248,142,139,248,171,153,288,34,134,235,166,189,41]",-2,-7,1,0,0,0,133,132,132,101,1,,,,,,,,,,,,,,,,,,,,,
,,,,,,,,,,,,,,,,,,,,,,,,,,,,,,,,,,,,,,,,,,,5b2b03070ec82d0001d28898,5fb5d9ff8341131d1550ecf4,2020-11-18_23h36.36.213,Colour_Similarity_Experiment,2020.1.2,Win32,60,5fb5945709dec70f2d595766,,,,,,,,,,,,,,,,,,,,PF,,,,,,,,7,0.799,,,,,,,,,,,,,,,,,,,,,,,,,,,,1,40,57,1,0,0,response1disk,5,5,-5,1,0,0,rectangle,35,76,1,0,0,7,7,"[144,66,198,304,162,26,176,248,142,139,248,171,153,288,34,134,235,166,189,41]",-4,-6,1,0,0,0,134,133,133,28,1,response1disk_3,rectangle,,,,,,,,,,,,,,,,,,,
,,,,,,,,,,,,,,,,,,,,,,,,,,,,,,,,,,,,,,,,,,,5b2b03070ec82d0001d28898,5fb5d9ff8341131d1550ecf4,2020-11-18_23h36.36.213,Colour_Similarity_Experiment,2020.1.2,Win32,60,5fb5945709dec70f2d595766,,,,,,,,,,,,,,,,,,,,FF,,,,,,,,3,1.751,,,,,,,,,,,,,,,,,,,,,,,,,,,,8,-30,-71,1,0,0,response5disk,8,12,13,1,0,0,rectangle,12,13,1,0,0,7,3,"[144,66,198,304,162,26,176,248,142,139,248,171,153,288,34,134,235,166,189,41]",12,13,1,0,0,0,135,134,134,48,1,,,,,,,,,,,,,,,,,,,,,
,,,,,,,,,,,,,,,,,,,,,,,,,,,,,,,,,,,,,,,,,,,5b2b03070ec82d0001d28898,5fb5d9ff8341131d1550ecf4,2020-11-18_23h36.36.213,Colour_Similarity_Experiment,2020.1.2,Win32,60,5fb5945709dec70f2d595766,,,,,,,,,,,,,,,,,,,,PF,,,,,,,,4,1.201,,,,,,,,,,,,,,,,,,,,,,,,,,,,6,31,-42,1,0,0,response3disk,7,-21,10,1,0,0,rectangle,-21,10,1,0,0,7,5,"[144,66,198,304,162,26,176,248,142,139,248,171,153,288,34,134,235,166,189,41]",-21,10,1,0,0,0,136,135,135,50,1,,,,,,,,,,,,,,,,,,,,,
,,,,,,,,,,,,,,,,,,,,,,,,,,,,,,,,,,,,,,,,,,,5b2b03070ec82d0001d28898,5fb5d9ff8341131d1550ecf4,2020-11-18_23h36.36.213,Colour_Similarity_Experiment,2020.1.2,Win32,60,5fb5945709dec70f2d595766,,,,,,,,,,,,,,,,,,,,FF,,,,,,,,7,0.735,,,,,,,,,,,,,,,,,,,,,,,,,,,,1,51,90,1,0,0,response1disk,4,22,-10,1,0,0,rectangle,22,-10,1,0,0,7,2,"[144,66,198,304,162,26,176,248,142,139,248,171,153,288,34,134,235,166,189,41]",22,-10,1,0,0,0,137,136,136,135,1,,,,,,,,,,,,,,,,,,,,,
,,,,,,,,,,,,,,,,,,,,,,,,,,,,,,,,,,,,,,,,,,,5b2b03070ec82d0001d28898,5fb5d9ff8341131d1550ecf4,2020-11-18_23h36.36.213,Colour_Similarity_Experiment,2020.1.2,Win32,60,5fb5945709dec70f2d595766,,,,,,,,,,,,,,,,,,,,PF,,,,,,,,7,1.404,,,,,,,,,,,,,,,,,,,,,,,,,,,,8,54,67,1,0,0,response1disk,5,2,-2,1,0,0,rectangle,2,-2,1,0,0,7,4,"[144,66,198,304,162,26,176,248,142,139,248,171,153,288,34,134,235,166,189,41]",2,-2,1,0,0,0,138,137,137,98,1,,,,,,,,,,,,,,,,,,,,,
,,,,,,,,,,,,,,,,,,,,,,,,,,,,,,,,,,,,,,,,,,,5b2b03070ec82d0001d28898,5fb5d9ff8341131d1550ecf4,2020-11-18_23h36.36.213,Colour_Similarity_Experiment,2020.1.2,Win32,60,5fb5945709dec70f2d595766,,,,,,,,,,,,,,,,,,,,FF,,,,,,,,7,0.951,,,,,,,,,,,,,,,,,,,,,,,,,,,,9,26,60,1,0,0,response1disk,6,11,12,1,0,0,rectangle,-79,-24,1,0,0,7,2,"[144,66,198,304,162,26,176,248,142,139,248,171,153,288,34,134,235,166,189,41]",2,5,1,0,0,0,139,138,138,117,1,response5disk_3,rectangle,,,,,,,,,,,,,,,,,,,
,,,,,,,,,,,,,,,,,,,,,,,,,,,,,,,,,,,,,,,,,,,5b2b03070ec82d0001d28898,5fb5d9ff8341131d1550ecf4,2020-11-18_23h36.36.213,Colour_Similarity_Experiment,2020.1.2,Win32,60,5fb5945709dec70f2d595766,,,,,,,,,,,,,,,,,,,,PF,,,,,,,,7,1.066,,,,,,,,,,,,,,,,,,,,,,,,,,,,1,55,69,1,0,0,response1disk,6,2,0,1,0,0,rectangle,2,0,1,0,0,7,2,"[144,66,198,304,162,26,176,248,142,139,248,171,153,288,34,134,235,166,189,41]",2,0,1,0,0,0,140,139,139,144,1,,,,,,,,,,,,,,,,,,,,,
,,,,,,,,,,,,,,,,,,,,,,,,,,,,,,,,,,,,,,,,,,,5b2b03070ec82d0001d28898,5fb5d9ff8341131d1550ecf4,2020-11-18_23h36.36.213,Colour_Similarity_Experiment,2020.1.2,Win32,60,5fb5945709dec70f2d595766,,,,,,,,,,,,,,,,,,,,FF,,,,,,,,1,1.582,,,,,,,,,,,,,,,,,,,,,,,,,,,,3,-90,52,1,0,0,response7disk,3,-14,-14,1,0,0,rectangle,-14,-14,1,0,0,7,1,"[144,66,198,304,162,26,176,248,142,139,248,171,153,288,34,134,235,166,189,41]",-14,-14,1,0,0,0,141,140,140,68,1,,,,,,,,,,,,,,,,,,,,,
,,,,,,,,,,,,,,,,,,,,,,,,,,,,,,,,,,,,,,,,,,,5b2b03070ec82d0001d28898,5fb5d9ff8341131d1550ecf4,2020-11-18_23h36.36.213,Colour_Similarity_Experiment,2020.1.2,Win32,60,5fb5945709dec70f2d595766,,,,,,,,,,,,,,,,,,,,FF,,,,,,,,7,1.551,,,,,,,,,,,,,,,,,,,,,,,,,,,,7,50,115,1,0,0,response1disk,4,-11,11,1,0,0,rectangle,60,-24,1,0,0,5,5,"[144,66,198,304,162,26,176,248,142,139,248,171,153,288,34,134,235,166,189,41]",-6,-6,1,0,0,0,142,141,141,158,1,response3disk_3,rectangle,,,,,,,,,,,,,,,,,,,
,,,,,,,,,,,,,,,,,,,,,,,,,,,,,,,,,,,,,,,,,,,5b2b03070ec82d0001d28898,5fb5d9ff8341131d1550ecf4,2020-11-18_23h36.36.213,Colour_Similarity_Experiment,2020.1.2,Win32,60,5fb5945709dec70f2d595766,,,,,,,,,,,,,,,,,,,,PF,,,,,,,,7,0.917,,,,,,,,,,,,,,,,,,,,,,,,,,,,5,27,67,1,0,0,response1disk,7,-3,6,1,0,0,rectangle,-3,6,1,0,0,5,4,"[144,66,198,304,162,26,176,248,142,139,248,171,153,288,34,134,235,166,189,41]",-3,6,1,0,0,0,143,142,142,146,1,,,,,,,,,,,,,,,,,,,,,
,,,,,,,,,,,,,,,,,,,,,,,,,,,,,,,,,,,,,,,,,,,5b2b03070ec82d0001d28898,5fb5d9ff8341131d1550ecf4,2020-11-18_23h36.36.213,Colour_Similarity_Experiment,2020.1.2,Win32,60,5fb5945709dec70f2d595766,,,,,,,,,,,,,,,,,,,,FF,,,,,,,,7,0.766,,,,,,,,,,,,,,,,,,,,,,,,,,,,9,34,56,1,0,0,response1disk,5,-6,1,1,0,0,rectangle,-37,-90,1,0,0,3,3,"[144,66,198,304,162,26,176,248,142,139,248,171,153,288,34,134,235,166,189,41]",10,17,1,0,0,0,144,143,143,128,1,response5disk_3,rectangle,,,,,,,,,,,,,,,,,,,
,,,,,,,,,,,,,,,,,,,,,,,,,,,,,,,,,,,,,,,,,,,5b2b03070ec82d0001d28898,5fb5d9ff8341131d1550ecf4,2020-11-18_23h36.36.213,Colour_Similarity_Experiment,2020.1.2,Win32,60,5fb5945709dec70f2d595766,,,,,,,,,,,,,,,,,,,,PF,,,,,,,,7,0.784,,,,,,,,,,,,,,,,,,,,,,,,,,,,8,26,62,1,0,0,response1disk,1,-1,-3,1,0,0,rectangle,-1,-3,1,0,0,3,7,"[144,66,198,304,162,26,176,248,142,139,248,171,153,288,34,134,235,166,189,41]",-1,-3,1,0,0,0,145,144,144,57,1,,,,,,,,,,,,,,,,,,,,,
,,,,,,,,,,,,,,,,,,,,,,,,,,,,,,,,,,,,,,,,,,,5b2b03070ec82d0001d28898,5fb5d9ff8341131d1550ecf4,2020-11-18_23h36.36.213,Colour_Similarity_Experiment,2020.1.2,Win32,60,5fb5945709dec70f2d595766,,,,,,,,,,,,,,,,,,,,FF,,,,,,,,7,0.916,,,,,,,,,,,,,,,,,,,,,,,,,,,,5,30,54,1,0,0,response1disk,1,8,6,1,0,0,rectangle,8,6,1,0,0,3,7,"[144,66,198,304,162,26,176,248,142,139,248,171,153,288,34,134,235,166,189,41]",8,6,1,0,0,0,146,145,145,131,1,,,,,,,,,,,,,,,,,,,,,
,,,,,,,,,,,,,,,,,,,,,,,,,,,,,,,,,,,,,,,,,,,5b2b03070ec82d0001d28898,5fb5d9ff8341131d1550ecf4,2020-11-18_23h36.36.213,Colour_Similarity_Experiment,2020.1.2,Win32,60,5fb5945709dec70f2d595766,,,,,,,,,,,,,,,,,,,,FF,,,,,,,,6,4.35,,,,,,,,,,,,,,,,,,,,,,,,,,,,5,89,22,1,0,0,response1disk,3,4,5,1,0,0,rectangle,4,5,1,0,0,3,7,"[144,66,198,304,162,26,176,248,142,139,248,171,153,288,34,134,235,166,189,41]",4,5,1,0,0,0,147,146,146,25,1,,,,,,,,,,,,,,,,,,,,,
,,,,,,,,,,,,,,,,,,,,,,,,,,,,,,,,,,,,,,,,,,,5b2b03070ec82d0001d28898,5fb5d9ff8341131d1550ecf4,2020-11-18_23h36.36.213,Colour_Similarity_Experiment,2020.1.2,Win32,60,5fb5945709dec70f2d595766,,,,,,,,,,,,,,,,,,,,PF,,,,,,,,7,1.151,,,,,,,,,,,,,,,,,,,,,,,,,,,,9,32,49,1,0,0,response1disk,3,15,3,1,0,0,rectangle,15,3,1,0,0,3,3,"[144,66,198,304,162,26,176,248,142,139,248,171,153,288,34,134,235,166,189,41]",15,3,1,0,0,0,148,147,147,119,1,,,,,,,,,,,,,,,,,,,,,
,,,,,,,,,,,,,,,,,,,,,,,,,,,,,,,,,,,,,,,,,,,5b2b03070ec82d0001d28898,5fb5d9ff8341131d1550ecf4,2020-11-18_23h36.36.213,Colour_Similarity_Experiment,2020.1.2,Win32,60,5fb5945709dec70f2d595766,,,,,,,,,,,,,,,,,,,,FF,,,,,,,,7,0.636,,,,,,,,,,,,,,,,,,,,,,,,,,,,1,33,50,1,0,0,response1disk,3,4,2,1,0,0,rectangle,4,2,1,0,0,3,0,"[144,66,198,304,162,26,176,248,142,139,248,171,153,288,34,134,235,166,189,41]",4,2,1,0,0,0,149,148,148,99,1,,,,,,,,,,,,,,,,,,,,,
,,,,,,,,,,,,,,,,,,,,,,,,,,,,,,,,,,,,,,,,,,,5b2b03070ec82d0001d28898,5fb5d9ff8341131d1550ecf4,2020-11-18_23h36.36.213,Colour_Similarity_Experiment,2020.1.2,Win32,60,5fb5945709dec70f2d595766,,,,,,,,,,,,,,,,,,,,PF,,,,,,,,7,0.9,,,,,,,,,,,,,,,,,,,,,,,,,,,,6,25,35,1,0,0,response1disk,9,-1,-6,1,0,0,rectangle,-1,-6,1,0,0,3,5,"[144,66,198,304,162,26,176,248,142,139,248,171,153,288,34,134,235,166,189,41]",-1,-6,1,0,0,0,150,149,149,45,1,,,,,,,,,,,,,,,,,,,,,
,,,,,,,,,,,,,,,,,,,,,,,,,,,,,,,,,,,,,,,,,,,5b2b03070ec82d0001d28898,5fb5d9ff8341131d1550ecf4,2020-11-18_23h36.36.213,Colour_Similarity_Experiment,2020.1.2,Win32,60,5fb5945709dec70f2d595766,,,,,,,,,,,,,,,,,,,,FF,,,,,,,,7,0.605,,,,,,,,,,,,,,,,,,,,,,,,,,,,5,34,50,1,0,0,response1disk,8,11,13,1,0,0,rectangle,11,13,1,0,0,3,5,"[144,66,198,304,162,26,176,248,142,139,248,171,153,288,34,134,235,166,189,41]",11,13,1,0,0,0,151,150,150,16,1,,,,,,,,,,,,,,,,,,,,,
,,,,,,,,,,,,,,,,,,,,,,,,,,,,,,,,,,,,,,,,,,,5b2b03070ec82d0001d28898,5fb5d9ff8341131d1550ecf4,2020-11-18_23h36.36.213,Colour_Similarity_Experiment,2020.1.2,Win32,60,5fb5945709dec70f2d595766,,,,,,,,,,,,,,,,,,,,FF,,,,,,,,2,2.351,,,,,,,,,,,,,,,,,,,,,,,,,,,,6,-68,-49,1,0,0,response5disk,6,14,11,1,0,0,rectangle,14,11,1,0,0,3,7,"[144,66,198,304,162,26,176,248,142,139,248,171,153,288,34,134,235,166,189,41]",14,11,1,0,0,0,152,151,151,91,1,,,,,,,,,,,,,,,,,,,,,
,,,,,,,,,,,,,,,,,,,,,,,,,,,,,,,,,,,,,,,,,,,5b2b03070ec82d0001d28898,5fb5d9ff8341131d1550ecf4,2020-11-18_23h36.36.213,Colour_Similarity_Experiment,2020.1.2,Win32,60,5fb5945709dec70f2d595766,,,,,,,,,,,,,,,,,,,,PF,,,,,,,,7,0.666,,,,,,,,,,,,,,,,,,,,,,,,,,,,3,38,49,1,0,0,response1disk,1,-4,-4,1,0,0,rectangle,50,-110,1,0,0,4,4,"[144,66,198,304,162,26,176,248,142,139,248,171,153,288,34,134,235,166,189,41]",7,-10,1,0,0,0,153,152,152,96,1,response3disk_3,rectangle,,,,,,,,,,,,,,,,,,,
,,,,,,,,,,,,,,,,,,,,,,,,,,,,,,,,,,,,,,,,,,,5b2b03070ec82d0001d28898,5fb5d9ff8341131d1550ecf4,2020-11-18_23h36.36.213,Colour_Similarity_Experiment,2020.1.2,Win32,60,5fb5945709dec70f2d595766,,,,,,,,,,,,,,,,,,,,PF,,,,,,,,5,2.25,,,,,,,,,,,,,,,,,,,,,,,,,,,,2,94,-22,1,0,0,response3disk,1,18,15,1,0,0,rectangle,18,15,1,0,0,4,7,"[144,66,198,304,162,26,176,248,142,139,248,171,153,288,34,134,235,166,189,41]",18,15,1,0,0,0,154,153,153,9,1,,,,,,,,,,,,,,,,,,,,,
,,,,,,,,,,,,,,,,,,,,,,,,,,,,,,,,,,,,,,,,,,,5b2b03070ec82d0001d28898,5fb5d9ff8341131d1550ecf4,2020-11-18_23h36.36.213,Colour_Similarity_Experiment,2020.1.2,Win32,60,5fb5945709dec70f2d595766,,,,,,,,,,,,,,,,,,,,PF,,,,,,,,7,1.05,,,,,,,,,,,,,,,,,,,,,,,,,,,,8,27,57,1,0,0,response1disk,3,17,-2,1,0,0,rectangle,17,-2,1,0,0,4,1,"[144,66,198,304,162,26,176,248,142,139,248,171,153,288,34,134,235,166,189,41]",17,-2,1,0,0,0,155,154,154,71,1,,,,,,,,,,,,,,,,,,,,,
,,,,,,,,,,,,,,,,,,,,,,,,,,,,,,,,,,,,,,,,,,,5b2b03070ec82d0001d28898,5fb5d9ff8341131d1550ecf4,2020-11-18_23h36.36.213,Colour_Similarity_Experiment,2020.1.2,Win32,60,5fb5945709dec70f2d595766,,,,,,,,,,,,,,,,,,,,PF,,,,,,,,6,1.586,,,,,,,,,,,,,,,,,,,,,,,,,,,,6,48,38,1,0,0,response1disk,8,3,14,1,0,0,rectangle,3,14,1,0,0,4,1,"[144,66,198,304,162,26,176,248,142,139,248,171,153,288,34,134,235,166,189,41]",3,14,1,0,0,0,156,155,155,64,1,,,,,,,,,,,,,,,,,,,,,
,,,,,,,,,,,,,,,,,,,,,,,,,,,,,,,,,,,,,,,,,,,5b2b03070ec82d0001d28898,5fb5d9ff8341131d1550ecf4,2020-11-18_23h36.36.213,Colour_Similarity_Experiment,2020.1.2,Win32,60,5fb5945709dec70f2d595766,,,,,,,,,,,,,,,,,,,,FF,,,,,,,,7,0.82,,,,,,,,,,,,,,,,,,,,,,,,,,,,3,18,44,1,0,0,response1disk,1,8,7,1,0,0,rectangle,8,7,1,0,0,4,5,"[144,66,198,304,162,26,176,248,142,139,248,171,153,288,34,134,235,166,189,41]",8,7,1,0,0,0,157,156,156,125,1,,,,,,,,,,,,,,,,,,,,,
,,,,,,,,,,,,,,,,,,,,,,,,,,,,,,,,,,,,,,,,,,,5b2b03070ec82d0001d28898,5fb5d9ff8341131d1550ecf4,2020-11-18_23h36.36.213,Colour_Similarity_Experiment,2020.1.2,Win32,60,5fb5945709dec70f2d595766,,,,,,,,,,,,,,,,,,,,FF,,,,,,,,6,0.95,,,,,,,,,,,,,,,,,,,,,,,,,,,,7,63,34,1,0,0,response1disk,8,2,-2,1,0,0,rectangle,2,-2,1,0,0,4,5,"[144,66,198,304,162,26,176,248,142,139,248,171,153,288,34,134,235,166,189,41]",2,-2,1,0,0,0,158,157,157,97,1,,,,,,,,,,,,,,,,,,,,,
,,,,,,,,,,,,,,,,,,,,,,,,,,,,,,,,,,,,,,,,,,,5b2b03070ec82d0001d28898,5fb5d9ff8341131d1550ecf4,2020-11-18_23h36.36.213,Colour_Similarity_Experiment,2020.1.2,Win32,60,5fb5945709dec70f2d595766,,,,,,,,,,,,,,,,,,,,FF,,,,,,,,5,1.232,,,,,,,,,,,,,,,,,,,,,,,,,,,,7,72,-41,1,0,0,response3disk,6,-7,-2,1,0,0,rectangle,-7,-2,1,0,0,4,4,"[144,66,198,304,162,26,176,248,142,139,248,171,153,288,34,134,235,166,189,41]",-7,-2,1,0,0,0,159,158,158,31,1,,,,,,,,,,,,,,,,,,,,,
,,,,,,,,,,,,,,,,,,,,,,,,,,,,,,,,,,,,,,,,,,,5b2b03070ec82d0001d28898,5fb5d9ff8341131d1550ecf4,2020-11-18_23h36.36.213,Colour_Similarity_Experiment,2020.1.2,Win32,60,5fb5945709dec70f2d595766,,,,,,,,,,,,,,,,,,,,PF,,,,,,,,7,0.918,,,,,,,,,,,,,,,,,,,,,,,,,,,,7,31,59,1,0,0,response1disk,3,18,-9,1,0,0,rectangle,18,-9,1,0,0,4,6,"[144,66,198,304,162,26,176,248,142,139,248,171,153,288,34,134,235,166,189,41]",18,-9,1,0,0,0,160,159,159,81,1,,,,,,,,,,,,,,,,,,,,,
,,,,,,,,,,,,,,,,,,,,,,,,,,,,,,,,,,,,,,,,,,,5b2b03070ec82d0001d28898,5fb5d9ff8341131d1550ecf4,2020-11-18_23h36.36.213,Colour_Similarity_Experiment,2020.1.2,Win32,60,5fb5945709dec70f2d595766,,,,,,,,,,,,,,,,,,,,FF,,,,,,,,7,0.932,,,,,,,,,,,,,,,,,,,,,,,,,,,,3,26,48,1,0,0,response1disk,8,-2,-1,1,0,0,rectangle,-2,-1,1,0,0,4,6,"[144,66,198,304,162,26,176,248,142,139,248,171,153,288,34,134,235,166,189,41]",-2,-1,1,0,0,0,161,160,160,44,1,,,,,,,,,,,,,,,,,,,,,
,,,,,,,,,,,,,,,,,,,,,,,,,,,,,,,,,,,,,,,,,,,5b2b03070ec82d0001d28898,5fb5d9ff8341131d1550ecf4,2020-11-18_23h36.36.213,Colour_Similarity_Experiment,2020.1.2,Win32,60,5fb5945709dec70f2d595766,,,,,,,,,,,,,,,,,,,,FF,,,,,,,,7,0.766,,,,,,,,,,,,,,,,,,,,,,,,,,,,4,22,35,1,0,0,response1disk,2,8,14,1,0,0,rectangle,-64,-90,1,0,0,3,3,"[144,66,198,304,162,26,176,248,142,139,248,171,153,288,34,134,235,166,189,41]",-7,2,1,0,0,0,162,161,161,13,1,response5disk_3,rectangle,,,,,,,,,,,,,,,,,,,
,,,,,,,,,,,,,,,,,,,,,,,,,,,,,,,,,,,,,,,,,,,5b2b03070ec82d0001d28898,5fb5d9ff8341131d1550ecf4,2020-11-18_23h36.36.213,Colour_Similarity_Experiment,2020.1.2,Win32,60,5fb5945709dec70f2d595766,,,,,,,,,,,,,,,,,,,,,,,,,,,,,,,,,,,,,,,,,,,,,,,,,,,,,,,,,,,,,,,,,,,,,,,,,,,,,,,,,,,,,,,,,,,,0,0,0,0,1,,,,,,,,,,,,,,
,,,,,,,,,,,,,,,,,,,,,,,,,,,,,,,,,,,,,,,,,,,5b2b03070ec82d0001d28898,5fb5d9ff8341131d1550ecf4,2020-11-18_23h36.36.213,Colour_Similarity_Experiment,2020.1.2,Win32,60,5fb5945709dec70f2d595766,,,,,,,,,,,,,,,,,,,,PF,,,,,,,,1,1.479,,,,,,,,,,,,,,,,,,,,,,,,,,,,4,-80,33,1,0,0,response7disk,3,-24,13,1,0,0,rectangle,-24,13,1,0,0,3,1,"[144,66,198,304,162,26,176,248,142,139,248,171,153,288,34,134,235,166,189,41]",-24,13,1,0,0,0,163,0,0,89,1,,,,,,,,,,,,,,,,,,,,,
,,,,,,,,,,,,,,,,,,,,,,,,,,,,,,,,,,,,,,,,,,,5b2b03070ec82d0001d28898,5fb5d9ff8341131d1550ecf4,2020-11-18_23h36.36.213,Colour_Similarity_Experiment,2020.1.2,Win32,60,5fb5945709dec70f2d595766,,,,,,,,,,,,,,,,,,,,PF,,,,,,,,7,0.75,,,,,,,,,,,,,,,,,,,,,,,,,,,,4,18,42,1,0,0,response1disk,2,5,0,1,0,0,rectangle,5,0,1,0,0,3,5,"[144,66,198,304,162,26,176,248,142,139,248,171,153,288,34,134,235,166,189,41]",5,0,1,0,0,0,164,1,1,108,1,,,,,,,,,,,,,,,,,,,,,
,,,,,,,,,,,,,,,,,,,,,,,,,,,,,,,,,,,,,,,,,,,5b2b03070ec82d0001d28898,5fb5d9ff8341131d1550ecf4,2020-11-18_23h36.36.213,Colour_Similarity_Experiment,2020.1.2,Win32,60,5fb5945709dec70f2d595766,,,,,,,,,,,,,,,,,,,,FF,,,,,,,,3,1.75,,,,,,,,,,,,,,,,,,,,,,,,,,,,4,-45,-69,1,0,0,response5disk,5,-1,-3,1,0,0,rectangle,-1,-3,1,0,0,3,5,"[144,66,198,304,162,26,176,248,142,139,248,171,153,288,34,134,235,166,189,41]",-1,-3,1,0,0,0,165,2,2,116,1,,,,,,,,,,,,,,,,,,,,,
,,,,,,,,,,,,,,,,,,,,,,,,,,,,,,,,,,,,,,,,,,,5b2b03070ec82d0001d28898,5fb5d9ff8341131d1550ecf4,2020-11-18_23h36.36.213,Colour_Similarity_Experiment,2020.1.2,Win32,60,5fb5945709dec70f2d595766,,,,,,,,,,,,,,,,,,,,PF,,,,,,,,7,0.881,,,,,,,,,,,,,,,,,,,,,,,,,,,,4,27,49,1,0,0,response1disk,7,-2,-10,1,0,0,rectangle,-29,71,1,0,0,0,0,"[144,66,198,304,162,26,176,248,142,139,248,171,153,288,34,134,235,166,189,41]",11,-1,1,0,0,0,166,3,3,38,1,response7disk_3,rectangle,,,,,,,,,,,,,,,,,,,
,,,,,,,,,,,,,,,,,,,,,,,,,,,,,,,,,,,,,,,,,,,5b2b03070ec82d0001d28898,5fb5d9ff8341131d1550ecf4,2020-11-18_23h36.36.213,Colour_Similarity_Experiment,2020.1.2,Win32,60,5fb5945709dec70f2d595766,,,,,,,,,,,,,,,,,,,,PF,,,,,,,,7,0.715,,,,,,,,,,,,,,,,,,,,,,,,,,,,9,32,38,1,0,0,response1disk,6,4,-14,1,0,0,rectangle,4,-14,1,0,0,0,4,"[144,66,198,304,162,26,176,248,142,139,248,171,153,288,34,134,235,166,189,41]",4,-14,1,0,0,0,167,4,4,148,1,,,,,,,,,,,,,,,,,,,,,
,,,,,,,,,,,,,,,,,,,,,,,,,,,,,,,,,,,,,,,,,,,5b2b03070ec82d0001d28898,5fb5d9ff8341131d1550ecf4,2020-11-18_23h36.36.213,Colour_Similarity_Experiment,2020.1.2,Win32,60,5fb5945709dec70f2d595766,,,,,,,,,,,,,,,,,,,,PF,,,,,,,,7,0.603,,,,,,,,,,,,,,,,,,,,,,,,,,,,7,22,36,1,0,0,response1disk,9,6,0,1,0,0,rectangle,6,0,1,0,0,0,5,"[144,66,198,304,162,26,176,248,142,139,248,171,153,288,34,134,235,166,189,41]",6,0,1,0,0,0,168,5,5,10,1,,,,,,,,,,,,,,,,,,,,,
,,,,,,,,,,,,,,,,,,,,,,,,,,,,,,,,,,,,,,,,,,,5b2b03070ec82d0001d28898,5fb5d9ff8341131d1550ecf4,2020-11-18_23h36.36.213,Colour_Similarity_Experiment,2020.1.2,Win32,60,5fb5945709dec70f2d595766,,,,,,,,,,,,,,,,,,,,FF,,,,,,,,7,0.566,,,,,,,,,,,,,,,,,,,,,,,,,,,,1,18,37,1,0,0,response1disk,6,-3,-7,1,0,0,rectangle,-3,-7,1,0,0,0,5,"[144,66,198,304,162,26,176,248,142,139,248,171,153,288,34,134,235,166,189,41]",-3,-7,1,0,0,0,169,6,6,58,1,,,,,,,,,,,,,,,,,,,,,
,,,,,,,,,,,,,,,,,,,,,,,,,,,,,,,,,,,,,,,,,,,5b2b03070ec82d0001d28898,5fb5d9ff8341131d1550ecf4,2020-11-18_23h36.36.213,Colour_Similarity_Experiment,2020.1.2,Win32,60,5fb5945709dec70f2d595766,,,,,,,,,,,,,,,,,,,,PF,,,,,,,,7,0.616,,,,,,,,,,,,,,,,,,,,,,,,,,,,3,21,49,1,0,0,response1disk,7,5,-5,1,0,0,rectangle,5,-5,1,0,0,0,1,"[144,66,198,304,162,26,176,248,142,139,248,171,153,288,34,134,235,166,189,41]",5,-5,1,0,0,0,170,7,7,41,1,,,,,,,,,,,,,,,,,,,,,
,,,,,,,,,,,,,,,,,,,,,,,,,,,,,,,,,,,,,,,,,,,5b2b03070ec82d0001d28898,5fb5d9ff8341131d1550ecf4,2020-11-18_23h36.36.213,Colour_Similarity_Experiment,2020.1.2,Win32,60,5fb5945709dec70f2d595766,,,,,,,,,,,,,,,,,,,,FF,,,,,,,,1,2.5,,,,,,,,,,,,,,,,,,,,,,,,,,,,4,-86,39,1,0,0,response7disk,3,2,6,1,0,0,rectangle,-72,58,1,0,0,1,1,"[144,66,198,304,162,26,176,248,142,139,248,171,153,288,34,134,235,166,189,41]",15,-14,1,0,0,0,171,8,8,77,1,response7disk_3,rectangle,,,,,,,,,,,,,,,,,,,
,,,,,,,,,,,,,,,,,,,,,,,,,,,,,,,,,,,,,,,,,,,5b2b03070ec82d0001d28898,5fb5d9ff8341131d1550ecf4,2020-11-18_23h36.36.213,Colour_Similarity_Experiment,2020.1.2,Win32,60,5fb5945709dec70f2d595766,,,,,,,,,,,,,,,,,,,,PF,,,,,,,,7,0.751,,,,,,,,,,,,,,,,,,,,,,,,,,,,2,22,59,1,0,0,response1disk,3,-3,2,1,0,0,rectangle,-3,2,1,0,0,1,7,"[144,66,198,304,162,26,176,248,142,139,248,171,153,288,34,134,235,166,189,41]",-3,2,1,0,0,0,172,9,9,69,1,,,,,,,,,,,,,,,,,,,,,
,,,,,,,,,,,,,,,,,,,,,,,,,,,,,,,,,,,,,,,,,,,5b2b03070ec82d0001d28898,5fb5d9ff8341131d1550ecf4,2020-11-18_23h36.36.213,Colour_Similarity_Experiment,2020.1.2,Win32,60,5fb5945709dec70f2d595766,,,,,,,,,,,,,,,,,,,,FF,,,,,,,,7,0.482,,,,,,,,,,,,,,,,,,,,,,,,,,,,8,22,54,1,0,0,response1disk,3,-5,2,1,0,0,rectangle,-5,2,1,0,0,1,1,"[144,66,198,304,162,26,176,248,142,139,248,171,153,288,34,134,235,166,189,41]",-5,2,1,0,0,0,173,10,10,154,1,,,,,,,,,,,,,,,,,,,,,
,,,,,,,,,,,,,,,,,,,,,,,,,,,,,,,,,,,,,,,,,,,5b2b03070ec82d0001d28898,5fb5d9ff8341131d1550ecf4,2020-11-18_23h36.36.213,Colour_Similarity_Experiment,2020.1.2,Win32,60,5fb5945709dec70f2d595766,,,,,,,,,,,,,,,,,,,,FF,,,,,,,,7,0.584,,,,,,,,,,,,,,,,,,,,,,,,,,,,8,25,46,1,0,0,response1disk,2,-6,-10,1,0,0,rectangle,-6,-10,1,0,0,1,1,"[144,66,198,304,162,26,176,248,142,139,248,171,153,288,34,134,235,166,189,41]",-6,-10,1,0,0,0,174,11,11,22,1,,,,,,,,,,,,,,,,,,,,,
,,,,,,,,,,,,,,,,,,,,,,,,,,,,,,,,,,,,,,,,,,,5b2b03070ec82d0001d28898,5fb5d9ff8341131d1550ecf4,2020-11-18_23h36.36.213,Colour_Similarity_Experiment,2020.1.2,Win32,60,5fb5945709dec70f2d595766,,,,,,,,,,,,,,,,,,,,FF,,,,,,,,7,0.634,,,,,,,,,,,,,,,,,,,,,,,,,,,,4,20,41,1,0,0,response1disk,6,5,-8,1,0,0,rectangle,5,-8,1,0,0,1,5,"[144,66,198,304,162,26,176,248,142,139,248,171,153,288,34,134,235,166,189,41]",5,-8,1,0,0,0,175,12,12,122,1,,,,,,,,,,,,,,,,,,,,,
,,,,,,,,,,,,,,,,,,,,,,,,,,,,,,,,,,,,,,,,,,,5b2b03070ec82d0001d28898,5fb5d9ff8341131d1550ecf4,2020-11-18_23h36.36.213,Colour_Similarity_Experiment,2020.1.2,Win32,60,5fb5945709dec70f2d595766,,,,,,,,,,,,,,,,,,,,PF,,,,,,,,7,1.068,,,,,,,,,,,,,,,,,,,,,,,,,,,,2,21,54,1,0,0,response1disk,4,12,7,1,0,0,rectangle,-41,-74,1,0,0,3,3,"[144,66,198,304,162,26,176,248,142,139,248,171,153,288,34,134,235,166,189,41]",14,1,1,0,0,0,176,13,13,127,1,response5disk_3,rectangle,,,,,,,,,,,,,,,,,,,
,,,,,,,,,,,,,,,,,,,,,,,,,,,,,,,,,,,,,,,,,,,5b2b03070ec82d0001d28898,5fb5d9ff8341131d1550ecf4,2020-11-18_23h36.36.213,Colour_Similarity_Experiment,2020.1.2,Win32,60,5fb5945709dec70f2d595766,,,,,,,,,,,,,,,,,,,,PF,,,,,,,,7,1.334,,,,,,,,,,,,,,,,,,,,,,,,,,,,8,28,50,1,0,0,response1disk,2,-12,3,1,0,0,rectangle,-12,3,1,0,0,3,5,"[144,66,198,304,162,26,176,248,142,139,248,171,153,288,34,134,235,166,189,41]",-12,3,1,0,0,0,177,14,14,83,1,,,,,,,,,,,,,,,,,,,,,
,,,,,,,,,,,,,,,,,,,,,,,,,,,,,,,,,,,,,,,,,,,5b2b03070ec82d0001d28898,5fb5d9ff8341131d1550ecf4,2020-11-18_23h36.36.213,Colour_Similarity_Experiment,2020.1.2,Win32,60,5fb5945709dec70f2d595766,,,,,,,,,,,,,,,,,,,,FF,,,,,,,,7,0.75,,,,,,,,,,,,,,,,,,,,,,,,,,,,6,28,60,1,0,0,response1disk,8,13,14,1,0,0,rectangle,13,14,1,0,0,3,4,"[144,66,198,304,162,26,176,248,142,139,248,171,153,288,34,134,235,166,189,41]",13,14,1,0,0,0,178,15,15,133,1,,,,,,,,,,,,,,,,,,,,,
,,,,,,,,,,,,,,,,,,,,,,,,,,,,,,,,,,,,,,,,,,,5b2b03070ec82d0001d28898,5fb5d9ff8341131d1550ecf4,2020-11-18_23h36.36.213,Colour_Similarity_Experiment,2020.1.2,Win32,60,5fb5945709dec70f2d595766,,,,,,,,,,,,,,,,,,,,PF,,,,,,,,7,0.615,,,,,,,,,,,,,,,,,,,,,,,,,,,,4,38,53,1,0,0,response1disk,8,6,1,1,0,0,rectangle,6,1,1,0,0,3,0,"[144,66,198,304,162,26,176,248,142,139,248,171,153,288,34,134,235,166,189,41]",6,1,1,0,0,0,179,16,16,124,1,,,,,,,,,,,,,,,,,,,,,
,,,,,,,,,,,,,,,,,,,,,,,,,,,,,,,,,,,,,,,,,,,5b2b03070ec82d0001d28898,5fb5d9ff8341131d1550ecf4,2020-11-18_23h36.36.213,Colour_Similarity_Experiment,2020.1.2,Win32,60,5fb5945709dec70f2d595766,,,,,,,,,,,,,,,,,,,,FF,,,,,,,,1,1.704,,,,,,,,,,,,,,,,,,,,,,,,,,,,3,-71,55,1,0,0,response7disk,4,-14,5,1,0,0,rectangle,-14,5,1,0,0,3,5,"[144,66,198,304,162,26,176,248,142,139,248,171,153,288,34,134,235,166,189,41]",-14,5,1,0,0,0,180,17,17,110,1,,,,,,,,,,,,,,,,,,,,,
,,,,,,,,,,,,,,,,,,,,,,,,,,,,,,,,,,,,,,,,,,,5b2b03070ec82d0001d28898,5fb5d9ff8341131d1550ecf4,2020-11-18_23h36.36.213,Colour_Similarity_Experiment,2020.1.2,Win32,60,5fb5945709dec70f2d595766,,,,,,,,,,,,,,,,,,,,FF,,,,,,,,7,0.94,,,,,,,,,,,,,,,,,,,,,,,,,,,,1,30,50,1,0,0,response1disk,5,-3,-7,1,0,0,rectangle,-3,-7,1,0,0,3,2,"[144,66,198,304,162,26,176,248,142,139,248,171,153,288,34,134,235,166,189,41]",-3,-7,1,0,0,0,181,18,18,82,1,,,,,,,,,,,,,,,,,,,,,
,,,,,,,,,,,,,,,,,,,,,,,,,,,,,,,,,,,,,,,,,,,5b2b03070ec82d0001d28898,5fb5d9ff8341131d1550ecf4,2020-11-18_23h36.36.213,Colour_Similarity_Experiment,2020.1.2,Win32,60,5fb5945709dec70f2d595766,,,,,,,,,,,,,,,,,,,,PF,,,,,,,,7,1.349,,,,,,,,,,,,,,,,,,,,,,,,,,,,6,22,38,1,0,0,response1disk,4,4,2,1,0,0,rectangle,4,2,1,0,0,3,2,"[144,66,198,304,162,26,176,248,142,139,248,171,153,288,34,134,235,166,189,41]",4,2,1,0,0,0,182,19,19,33,1,,,,,,,,,,,,,,,,,,,,,
,,,,,,,,,,,,,,,,,,,,,,,,,,,,,,,,,,,,,,,,,,,5b2b03070ec82d0001d28898,5fb5d9ff8341131d1550ecf4,2020-11-18_23h36.36.213,Colour_Similarity_Experiment,2020.1.2,Win32,60,5fb5945709dec70f2d595766,,,,,,,,,,,,,,,,,,,,FF,,,,,,,,6,1.884,,,,,,,,,,,,,,,,,,,,,,,,,,,,6,58,42,1,0,0,response1disk,9,2,-2,1,0,0,rectangle,2,-2,1,0,0,3,5,"[144,66,198,304,162,26,176,248,142,139,248,171,153,288,34,134,235,166,189,41]",2,-2,1,0,0,0,183,20,20,160,1,,,,,,,,,,,,,,,,,,,,,
,,,,,,,,,,,,,,,,,,,,,,,,,,,,,,,,,,,,,,,,,,,5b2b03070ec82d0001d28898,5fb5d9ff8341131d1550ecf4,2020-11-18_23h36.36.213,Colour_Similarity_Experiment,2020.1.2,Win32,60,5fb5945709dec70f2d595766,,,,,,,,,,,,,,,,,,,,PF,,,,,,,,7,1.129,,,,,,,,,,,,,,,,,,,,,,,,,,,,3,26,86,1,0,0,response1disk,6,3,10,1,0,0,rectangle,3,10,1,0,0,3,5,"[144,66,198,304,162,26,176,248,142,139,248,171,153,288,34,134,235,166,189,41]",3,10,1,0,0,0,184,21,21,47,1,,,,,,,,,,,,,,,,,,,,,
,,,,,,,,,,,,,,,,,,,,,,,,,,,,,,,,,,,,,,,,,,,5b2b03070ec82d0001d28898,5fb5d9ff8341131d1550ecf4,2020-11-18_23h36.36.213,Colour_Similarity_Experiment,2020.1.2,Win32,60,5fb5945709dec70f2d595766,,,,,,,,,,,,,,,,,,,,PF,,,,,,,,7,1.983,,,,,,,,,,,,,,,,,,,,,,,,,,,,9,32,66,1,0,0,response1disk,2,-2,10,1,0,0,rectangle,-2,10,1,0,0,3,3,"[144,66,198,304,162,26,176,248,142,139,248,171,153,288,34,134,235,166,189,41]",-2,10,1,0,0,0,185,22,22,157,1,,,,,,,,,,,,,,,,,,,,,
,,,,,,,,,,,,,,,,,,,,,,,,,,,,,,,,,,,,,,,,,,,5b2b03070ec82d0001d28898,5fb5d9ff8341131d1550ecf4,2020-11-18_23h36.36.213,Colour_Similarity_Experiment,2020.1.2,Win32,60,5fb5945709dec70f2d595766,,,,,,,,,,,,,,,,,,,,FF,,,,,,,,7,0.583,,,,,,,,,,,,,,,,,,,,,,,,,,,,7,30,59,1,0,0,response1disk,1,12,10,1,0,0,rectangle,12,10,1,0,0,3,3,"[144,66,198,304,162,26,176,248,142,139,248,171,153,288,34,134,235,166,189,41]",12,10,1,0,0,0,186,23,23,132,1,,,,,,,,,,,,,,,,,,,,,
,,,,,,,,,,,,,,,,,,,,,,,,,,,,,,,,,,,,,,,,,,,5b2b03070ec82d0001d28898,5fb5d9ff8341131d1550ecf4,2020-11-18_23h36.36.213,Colour_Similarity_Experiment,2020.1.2,Win32,60,5fb5945709dec70f2d595766,,,,,,,,,,,,,,,,,,,,FF,,,,,,,,7,0.673,,,,,,,,,,,,,,,,,,,,,,,,,,,,4,26,58,1,0,0,response1disk,7,-14,8,1,0,0,rectangle,-14,8,1,0,0,3,7,"[144,66,198,304,162,26,176,248,142,139,248,171,153,288,34,134,235,166,189,41]",-14,8,1,0,0,0,187,24,24,87,1,,,,,,,,,,,,,,,,,,,,,
,,,,,,,,,,,,,,,,,,,,,,,,,,,,,,,,,,,,,,,,,,,5b2b03070ec82d0001d28898,5fb5d9ff8341131d1550ecf4,2020-11-18_23h36.36.213,Colour_Similarity_Experiment,2020.1.2,Win32,60,5fb5945709dec70f2d595766,,,,,,,,,,,,,,,,,,,,PF,,,,,,,,7,0.518,,,,,,,,,,,,,,,,,,,,,,,,,,,,3,24,38,1,0,0,response1disk,8,3,8,1,0,0,rectangle,3,8,1,0,0,3,4,"[144,66,198,304,162,26,176,248,142,139,248,171,153,288,34,134,235,166,189,41]",3,8,1,0,0,0,188,25,25,3,1,,,,,,,,,,,,,,,,,,,,,
,,,,,,,,,,,,,,,,,,,,,,,,,,,,,,,,,,,,,,,,,,,5b2b03070ec82d0001d28898,5fb5d9ff8341131d1550ecf4,2020-11-18_23h36.36.213,Colour_Similarity_Experiment,2020.1.2,Win32,60,5fb5945709dec70f2d595766,,,,,,,,,,,,,,,,,,,,PF,,,,,,,,4,1.6,,,,,,,,,,,,,,,,,,,,,,,,,,,,5,46,-83,1,0,0,response3disk,6,-4,13,1,0,0,rectangle,34,-102,1,0,0,4,4,"[144,66,198,304,162,26,176,248,142,139,248,171,153,288,34,134,235,166,189,41]",-10,-2,1,0,0,0,189,26,26,103,1,response3disk_3,rectangle,,,,,,,,,,,,,,,,,,,
,,,,,,,,,,,,,,,,,,,,,,,,,,,,,,,,,,,,,,,,,,,5b2b03070ec82d0001d28898,5fb5d9ff8341131d1550ecf4,2020-11-18_23h36.36.213,Colour_Similarity_Experiment,2020.1.2,Win32,60,5fb5945709dec70f2d595766,,,,,,,,,,,,,,,,,,,,FF,,,,,,,,7,2.07,,,,,,,,,,,,,,,,,,,,,,,,,,,,8,31,53,1,0,0,response1disk,5,5,-10,1,0,0,rectangle,5,-10,1,0,0,4,4,"[144,66,198,304,162,26,176,248,142,139,248,171,153,288,34,134,235,166,189,41]",5,-10,1,0,0,0,190,27,27,152,1,,,,,,,,,,,,,,,,,,,,,
,,,,,,,,,,,,,,,,,,,,,,,,,,,,,,,,,,,,,,,,,,,5b2b03070ec82d0001d28898,5fb5d9ff8341131d1550ecf4,2020-11-18_23h36.36.213,Colour_Similarity_Experiment,2020.1.2,Win32,60,5fb5945709dec70f2d595766,,,,,,,,,,,,,,,,,,,,FF,,,,,,,,0,1.499,,,,,,,,,,,,,,,,,,,,,,,,,,,,4,-45,94,1,0,0,response7disk,4,-12,4,1,0,0,rectangle,-12,4,1,0,0,4,5,"[144,66,198,304,162,26,176,248,142,139,248,171,153,288,34,134,235,166,189,41]",-12,4,1,0,0,0,191,28,28,84,1,,,,,,,,,,,,,,,,,,,,,
,,,,,,,,,,,,,,,,,,,,,,,,,,,,,,,,,,,,,,,,,,,5b2b03070ec82d0001d28898,5fb5d9ff8341131d1550ecf4,2020-11-18_23h36.36.213,Colour_Similarity_Experiment,2020.1.2,Win32,60,5fb5945709dec70f2d595766,,,,,,,,,,,,,,,,,,,,FF,,,,,,,,7,0.85,,,,,,,,,,,,,,,,,,,,,,,,,,,,6,31,70,1,0,0,response1disk,4,2,-1,1,0,0,rectangle,2,-1,1,0,0,4,3,"[144,66,198,304,162,26,176,248,142,139,248,171,153,288,34,134,235,166,189,41]",2,-1,1,0,0,0,192,29,29,56,1,,,,,,,,,,,,,,,,,,,,,
,,,,,,,,,,,,,,,,,,,,,,,,,,,,,,,,,,,,,,,,,,,5b2b03070ec82d0001d28898,5fb5d9ff8341131d1550ecf4,2020-11-18_23h36.36.213,Colour_Similarity_Experiment,2020.1.2,Win32,60,5fb5945709dec70f2d595766,,,,,,,,,,,,,,,,,,,,PF,,,,,,,,7,0.619,,,,,,,,,,,,,,,,,,,,,,,,,,,,9,26,83,1,0,0,response1disk,4,2,2,1,0,0,rectangle,2,2,1,0,0,4,1,"[144,66,198,304,162,26,176,248,142,139,248,171,153,288,34,134,235,166,189,41]",2,2,1,0,0,0,193,30,30,114,1,,,,,,,,,,,,,,,,,,,,,
,,,,,,,,,,,,,,,,,,,,,,,,,,,,,,,,,,,,,,,,,,,5b2b03070ec82d0001d28898,5fb5d9ff8341131d1550ecf4,2020-11-18_23h36.36.213,Colour_Similarity_Experiment,2020.1.2,Win32,60,5fb5945709dec70f2d595766,,,,,,,,,,,,,,,,,,,,FF,,,,,,,,5,2.667,,,,,,,,,,,,,,,,,,,,,,,,,,,,2,63,-45,1,0,0,response3disk,3,-3,10,1,0,0,rectangle,-3,10,1,0,0,4,1,"[144,66,198,304,162,26,176,248,142,139,248,171,153,288,34,134,235,166,189,41]",-3,10,1,0,0,0,194,31,31,104,1,,,,,,,,,,,,,,,,,,,,,
,,,,,,,,,,,,,,,,,,,,,,,,,,,,,,,,,,,,,,,,,,,5b2b03070ec82d0001d28898,5fb5d9ff8341131d1550ecf4,2020-11-18_23h36.36.213,Colour_Similarity_Experiment,2020.1.2,Win32,60,5fb5945709dec70f2d595766,,,,,,,,,,,,,,,,,,,,PF,,,,,,,,0,1.482,,,,,,,,,,,,,,,,,,,,,,,,,,,,3,-67,99,1,0,0,response7disk,3,3,-14,1,0,0,rectangle,3,-14,1,0,0,4,2,"[144,66,198,304,162,26,176,248,142,139,248,171,153,288,34,134,235,166,189,41]",3,-14,1,0,0,0,195,32,32,4,1,,,,,,,,,,,,,,,,,,,,,
,,,,,,,,,,,,,,,,,,,,,,,,,,,,,,,,,,,,,,,,,,,5b2b03070ec82d0001d28898,5fb5d9ff8341131d1550ecf4,2020-11-18_23h36.36.213,Colour_Similarity_Experiment,2020.1.2,Win32,60,5fb5945709dec70f2d595766,,,,,,,,,,,,,,,,,,,,FF,,,,,,,,7,0.934,,,,,,,,,,,,,,,,,,,,,,,,,,,,3,23,54,1,0,0,response1disk,2,-6,-9,1,0,0,rectangle,-6,-9,1,0,0,4,2,"[144,66,198,304,162,26,176,248,142,139,248,171,153,288,34,134,235,166,189,41]",-6,-9,1,0,0,0,196,33,33,93,1,,,,,,,,,,,,,,,,,,,,,
,,,,,,,,,,,,,,,,,,,,,,,,,,,,,,,,,,,,,,,,,,,5b2b03070ec82d0001d28898,5fb5d9ff8341131d1550ecf4,2020-11-18_23h36.36.213,Colour_Similarity_Experiment,2020.1.2,Win32,60,5fb5945709dec70f2d595766,,,,,,,,,,,,,,,,,,,,PF,,,,,,,,7,0.832,,,,,,,,,,,,,,,,,,,,,,,,,,,,2,27,58,1,0,0,response1disk,6,-4,-2,1,0,0,rectangle,-4,-2,1,0,0,4,4,"[144,66,198,304,162,26,176,248,142,139,248,171,153,288,34,134,235,166,189,41]",-4,-2,1,0,0,0,197,34,34,113,1,,,,,,,,,,,,,,,,,,,,,
,,,,,,,,,,,,,,,,,,,,,,,,,,,,,,,,,,,,,,,,,,,5b2b03070ec82d0001d28898,5fb5d9ff8341131d1550ecf4,2020-11-18_23h36.36.213,Colour_Similarity_Experiment,2020.1.2,Win32,60,5fb5945709dec70f2d595766,,,,,,,,,,,,,,,,,,,,FF,,,,,,,,7,0.901,,,,,,,,,,,,,,,,,,,,,,,,,,,,7,23,57,1,0,0,response1disk,3,1,2,1,0,0,rectangle,-35,81,1,0,0,0,0,"[144,66,198,304,162,26,176,248,142,139,248,171,153,288,34,134,235,166,189,41]",-2,0,1,0,0,0,198,35,35,73,1,response7disk_3,rectangle,,,,,,,,,,,,,,,,,,,
,,,,,,,,,,,,,,,,,,,,,,,,,,,,,,,,,,,,,,,,,,,5b2b03070ec82d0001d28898,5fb5d9ff8341131d1550ecf4,2020-11-18_23h36.36.213,Colour_Similarity_Experiment,2020.1.2,Win32,60,5fb5945709dec70f2d595766,,,,,,,,,,,,,,,,,,,,FF,,,,,,,,6,1.173,,,,,,,,,,,,,,,,,,,,,,,,,,,,8,58,36,1,0,0,response1disk,6,6,3,1,0,0,rectangle,6,3,1,0,0,0,3,"[144,66,198,304,162,26,176,248,142,139,248,171,153,288,34,134,235,166,189,41]",6,3,1,0,0,0,199,36,36,37,1,,,,,,,,,,,,,,,,,,,,,
,,,,,,,,,,,,,,,,,,,,,,,,,,,,,,,,,,,,,,,,,,,5b2b03070ec82d0001d28898,5fb5d9ff8341131d1550ecf4,2020-11-18_23h36.36.213,Colour_Similarity_Experiment,2020.1.2,Win32,60,5fb5945709dec70f2d595766,,,,,,,,,,,,,,,,,,,,FF,,,,,,,,7,0.669,,,,,,,,,,,,,,,,,,,,,,,,,,,,6,17,50,1,0,0,response1disk,1,-10,-10,1,0,0,rectangle,-10,-10,1,0,0,0,2,"[144,66,198,304,162,26,176,248,142,139,248,171,153,288,34,134,235,166,189,41]",-10,-10,1,0,0,0,200,37,37,5,1,,,,,,,,,,,,,,,,,,,,,
,,,,,,,,,,,,,,,,,,,,,,,,,,,,,,,,,,,,,,,,,,,5b2b03070ec82d0001d28898,5fb5d9ff8341131d1550ecf4,2020-11-18_23h36.36.213,Colour_Similarity_Experiment,2020.1.2,Win32,60,5fb5945709dec70f2d595766,,,,,,,,,,,,,,,,,,,,PF,,,,,,,,7,0.935,,,,,,,,,,,,,,,,,,,,,,,,,,,,1,20,43,1,0,0,response1disk,8,-11,-2,1,0,0,rectangle,-11,-2,1,0,0,0,0,"[144,66,198,304,162,26,176,248,142,139,248,171,153,288,34,134,235,166,189,41]",-11,-2,1,0,0,0,201,38,38,65,1,,,,,,,,,,,,,,,,,,,,,
,,,,,,,,,,,,,,,,,,,,,,,,,,,,,,,,,,,,,,,,,,,5b2b03070ec82d0001d28898,5fb5d9ff8341131d1550ecf4,2020-11-18_23h36.36.213,Colour_Similarity_Experiment,2020.1.2,Win32,60,5fb5945709dec70f2d595766,,,,,,,,,,,,,,,,,,,,PF,,,,,,,,7,0.601,,,,,,,,,,,,,,,,,,,,,,,,,,,,5,30,39,1,0,0,response1disk,1,-26,-2,1,0,0,rectangle,-26,-2,1,0,0,0,1,"[144,66,198,304,162,26,176,248,142,139,248,171,153,288,34,134,235,166,189,41]",-26,-2,1,0,0,0,202,39,39,159,1,,,,,,,,,,,,,,,,,,,,,
,,,,,,,,,,,,,,,,,,,,,,,,,,,,,,,,,,,,,,,,,,,5b2b03070ec82d0001d28898,5fb5d9ff8341131d1550ecf4,2020-11-18_23h36.36.213,Colour_Similarity_Experiment,2020.1.2,Win32,60,5fb5945709dec70f2d595766,,,,,,,,,,,,,,,,,,,,FF,,,,,,,,0,1.116,,,,,,,,,,,,,,,,,,,,,,,,,,,,7,-53,72,1,0,0,response7disk,7,2,-11,1,0,0,rectangle,2,-11,1,0,0,0,7,"[144,66,198,304,162,26,176,248,142,139,248,171,153,288,34,134,235,166,189,41]",2,-11,1,0,0,0,203,40,40,34,1,,,,,,,,,,,,,,,,,,,,,
,,,,,,,,,,,,,,,,,,,,,,,,,,,,,,,,,,,,,,,,,,,5b2b03070ec82d0001d28898,5fb5d9ff8341131d1550ecf4,2020-11-18_23h36.36.213,Colour_Similarity_Experiment,2020.1.2,Win32,60,5fb5945709dec70f2d595766,,,,,,,,,,,,,,,,,,,,PF,,,,,,,,7,0.8,,,,,,,,,,,,,,,,,,,,,,,,,,,,3,42,42,1,0,0,response1disk,2,0,-2,1,0,0,rectangle,0,-2,1,0,0,0,2,"[144,66,198,304,162,26,176,248,142,139,248,171,153,288,34,134,235,166,189,41]",0,-2,1,0,0,0,204,41,41,36,1,,,,,,,,,,,,,,,,,,,,,
,,,,,,,,,,,,,,,,,,,,,,,,,,,,,,,,,,,,,,,,,,,5b2b03070ec82d0001d28898,5fb5d9ff8341131d1550ecf4,2020-11-18_23h36.36.213,Colour_Similarity_Experiment,2020.1.2,Win32,60,5fb5945709dec70f2d595766,,,,,,,,,,,,,,,,,,,,PF,,,,,,,,7,0.835,,,,,,,,,,,,,,,,,,,,,,,,,,,,4,45,106,1,0,0,response1disk,9,3,10,1,0,0,rectangle,3,10,1,0,0,0,3,"[144,66,198,304,162,26,176,248,142,139,248,171,153,288,34,134,235,166,189,41]",3,10,1,0,0,0,205,42,42,75,1,,,,,,,,,,,,,,,,,,,,,
