key_resp.keys,key_resp.rt,key_resp_16.keys,key_resp_16.rt,key_resp_2.keys,key_resp_2.rt,X Scale,ratio_pxpermm,screen_size_x,screen_size_y,testsize,key_resp_3.keys,key_resp_3.rt,key_resp_4.keys,key_resp_4.rt,line_size,key_resp_5.keys,key_resp_5.rt,key_resp_6.keys,key_resp_6.rt,key_resp_8.keys,key_resp_8.rt,key_resp_7.keys,key_resp_7.rt,key_resp_12.keys,key_resp_12.rt,key_resp_11.keys,key_resp_11.rt,key_resp_18.keys,key_resp_18.rt,key_resp_21.keys,key_resp_21.rt,key_resp_13.keys,key_resp_13.rt,key_resp_19.keys,key_resp_19.rt,ballposx,viewer_distance,trials.thisRepN,trials.thisTrialN,trials.thisN,trials.thisIndex,trials.ran,participant,session,date,expName,psychopyVersion,OS,frameRate,study_id,viewerdistancecm,DVA_to_distance,radius_F,radius_P,r_F,R_P,key_resp_20.keys,key_resp_20.rt,key_resp_14.keys,key_resp_14.rt,key_resp_15.keys,key_resp_15.rt,key_resp_17.keys,key_resp_17.rt,key_resp_9.keys,key_resp_9.rt,key_resp_10.keys,key_resp_10.rt,Colour_1,Ecc,mouse_5.x,mouse_5.y,mouse_5.leftButton,mouse_5.midButton,mouse_5.rightButton,mouse_5.clicked_name,Colour_2,similarity,response_time,mouse_10.x,mouse_10.y,mouse_10.leftButton,mouse_10.midButton,mouse_10.rightButton,mouse_10.clicked_name,mouse_7.x,mouse_7.y,mouse_7.leftButton,mouse_7.midButton,mouse_7.rightButton,catchnumberprac,mouse_6.x,mouse_6.y,mouse_6.leftButton,mouse_6.midButton,mouse_6.rightButton,duringprac.thisRepN,duringprac.thisTrialN,duringprac.thisN,duringprac.thisIndex,duringprac.ran,mouse_7.clicked_name,catchprac,mouse_6.clicked_name,key_resp_22.keys,key_resp_22.rt,Colour1,mouse.x,mouse.y,mouse.leftButton,mouse.midButton,mouse.rightButton,mouse.clicked_name,Colour2,mouse_2.x,mouse_2.y,mouse_2.leftButton,mouse_2.midButton,mouse_2.rightButton,mouse_2.clicked_name,mouse_3.x,mouse_3.y,mouse_3.leftButton,mouse_3.midButton,mouse_3.rightButton,catchresponse,catchnumber,catchtrialorder,mouse_11.x,mouse_11.y,mouse_11.leftButton,mouse_11.midButton,mouse_11.rightButton,trials_2.thisRepN,trialnumber,trials_2.thisTrialN,trials_2.thisN,trials_2.thisIndex,trials_2.ran,mouse_3.clicked_name,mouse_11.clicked_name,trials_3.thisRepN,trials_3.thisTrialN,trials_3.thisN,trials_3.thisIndex,trials_3.ran,answer1,rt1,answer2,rt2,answer3,rt3,answer4,rt4,answer5,rt5,answer6,rt6,answer7,rt7
space,3.738,space,24.022,space,9.294,44.8,4.48,304.9107143,171.4285714,1366,space,45.256,space,27.884,89.6,space,9.955,space,9.45,space,4.574,space,10.113,space,11.508,space,10.842,space,16.054,space,11.956,space,17.223,return,8.95,-417.996,896.6517696,0,0,0,0,1,5b3937c57bc6be00010caf12,5fb5da77803f501d7b68b129,2020-11-18_20h38.33.652,Colour_Similarity_Experiment,2020.1.2,Linux x86_64,60,5fb5945709dec70f2d595766,,,,,,,,,,,,,,,,,,,,,,,,,,,,,,,,,,,,,,,,,,,,,,,,,,,,,,,,,,,,,,,,,,,,,,,,,,,,,,,,,,,,,,,,,,,,,,,,,,,,,,,,,,,,,,
,,,,,,,,,,,,,,,,,,,,,,,,,,,,,,,,,,return,8.87,-458.976,934.7531196,1,0,1,0,1,5b3937c57bc6be00010caf12,5fb5da77803f501d7b68b129,2020-11-18_20h38.33.652,Colour_Similarity_Experiment,2020.1.2,Linux x86_64,60,5fb5945709dec70f2d595766,,,,,,,,,,,,,,,,,,,,,,,,,,,,,,,,,,,,,,,,,,,,,,,,,,,,,,,,,,,,,,,,,,,,,,,,,,,,,,,,,,,,,,,,,,,,,,,,,,,,,,,,,,,,,,
,,,,,,,,,,,,,,,,,,,,,,,,,,,,,,,,,,return,9.261,-385.212,866.1706897,2,0,2,0,1,5b3937c57bc6be00010caf12,5fb5da77803f501d7b68b129,2020-11-18_20h38.33.652,Colour_Similarity_Experiment,2020.1.2,Linux x86_64,60,5fb5945709dec70f2d595766,,,,,,,,,,,,,,,,,,,,,,,,,,,,,,,,,,,,,,,,,,,,,,,,,,,,,,,,,,,,,,,,,,,,,,,,,,,,,,,,,,,,,,,,,,,,,,,,,,,,,,,,,,,,,,
,,,,,,,,,,,,,,,,,,,,,,,,,,,,,,,,,,return,6.971,-288.909,776.6325172,3,0,3,0,1,5b3937c57bc6be00010caf12,5fb5da77803f501d7b68b129,2020-11-18_20h38.33.652,Colour_Similarity_Experiment,2020.1.2,Linux x86_64,60,5fb5945709dec70f2d595766,,,,,,,,,,,,,,,,,,,,,,,,,,,,,,,,,,,,,,,,,,,,,,,,,,,,,,,,,,,,,,,,,,,,,,,,,,,,,,,,,,,,,,,,,,,,,,,,,,,,,,,,,,,,,,
,,,,,,,,,,,,,,,,,,,,,,,,,,,,,,,,,,return,9.867,-448.731,925.2277821,4,0,4,0,1,5b3937c57bc6be00010caf12,5fb5da77803f501d7b68b129,2020-11-18_20h38.33.652,Colour_Similarity_Experiment,2020.1.2,Linux x86_64,60,5fb5945709dec70f2d595766,,,,,,,,,,,,,,,,,,,,,,,,,,,,,,,,,,,,,,,,,,,,,,,,,,,,,,,,,,,,,,,,,,,,,,,,,,,,,,,,,,,,,,,,,,,,,,,,,,,,,,,,,,,,,,
,,,,,,,,,,,,,,,,,,,,,,,,,,,,,,,,,,,,,,,,,,,5b3937c57bc6be00010caf12,5fb5da77803f501d7b68b129,2020-11-18_20h38.33.652,Colour_Similarity_Experiment,2020.1.2,Linux x86_64,60,5fb5945709dec70f2d595766,88,15.36045164,103.222235,688.1482336,68.81482336,309.6667051,space,11.008,space,17.881,space,25.867,space,7.104,space,4.314,space,5.936,5,FF,-79,31,1,0,0,response7disk_5,6,1,6.579,-3,-3,1,0,0,rectangle_8,-3,-3,1,0,0,6,-3,-3,1,0,0,0,0,0,3,1,,,,,,,,,,,,,,,,,,,,,,,,,,,,,,,,,,,,,,,,,,,,,,,,,,,,,,,,,,,
,,,,,,,,,,,,,,,,,,,,,,,,,,,,,,,,,,,,,,,,,,,5b3937c57bc6be00010caf12,5fb5da77803f501d7b68b129,2020-11-18_20h38.33.652,Colour_Similarity_Experiment,2020.1.2,Linux x86_64,60,5fb5945709dec70f2d595766,,,,,,,,,,,,,,,,,,,9,FF,-44,77,1,0,0,response7disk_5,8,0,4.252,-1,-1,1,0,0,rectangle_8,72,41,1,0,0,6,-11,5,1,0,0,0,1,1,5,1,response1disk_7,6,rectangle_4,,,,,,,,,,,,,,,,,,,,,,,,,,,,,,,,,,,,,,,,,,,,,,,,,,,,,,,,
,,,,,,,,,,,,,,,,,,,,,,,,,,,,,,,,,,,,,,,,,,,5b3937c57bc6be00010caf12,5fb5da77803f501d7b68b129,2020-11-18_20h38.33.652,Colour_Similarity_Experiment,2020.1.2,Linux x86_64,60,5fb5945709dec70f2d595766,,,,,,,,,,,,,,,,,,,2,PF,48,92,1,0,0,response1disk_5,9,7,2.626,6,4,1,0,0,rectangle_8,99,45,1,0,0,6,-8,3,1,0,0,0,2,2,2,1,response1disk_7,6,rectangle_4,,,,,,,,,,,,,,,,,,,,,,,,,,,,,,,,,,,,,,,,,,,,,,,,,,,,,,,,
,,,,,,,,,,,,,,,,,,,,,,,,,,,,,,,,,,,,,,,,,,,5b3937c57bc6be00010caf12,5fb5da77803f501d7b68b129,2020-11-18_20h38.33.652,Colour_Similarity_Experiment,2020.1.2,Linux x86_64,60,5fb5945709dec70f2d595766,,,,,,,,,,,,,,,,,,,8,PF,49,73,1,0,0,response1disk_5,3,7,1.584,2,6,1,0,0,rectangle_8,2,6,1,0,0,6,2,6,1,0,0,0,3,3,4,1,,,,,,,,,,,,,,,,,,,,,,,,,,,,,,,,,,,,,,,,,,,,,,,,,,,,,,,,,,,
,,,,,,,,,,,,,,,,,,,,,,,,,,,,,,,,,,,,,,,,,,,5b3937c57bc6be00010caf12,5fb5da77803f501d7b68b129,2020-11-18_20h38.33.652,Colour_Similarity_Experiment,2020.1.2,Linux x86_64,60,5fb5945709dec70f2d595766,,,,,,,,,,,,,,,,,,,3,PF,-53,-85,1,0,0,response5disk_5,4,3,2.96,0,1,1,0,0,rectangle_8,0,1,1,0,0,6,0,1,1,0,0,0,4,4,1,1,,,,,,,,,,,,,,,,,,,,,,,,,,,,,,,,,,,,,,,,,,,,,,,,,,,,,,,,,,,
,,,,,,,,,,,,,,,,,,,,,,,,,,,,,,,,,,,,,,,,,,,5b3937c57bc6be00010caf12,5fb5da77803f501d7b68b129,2020-11-18_20h38.33.652,Colour_Similarity_Experiment,2020.1.2,Linux x86_64,60,5fb5945709dec70f2d595766,,,,,,,,,,,,,,,,,,,8,PF,97,-25,1,0,0,response3disk_5,9,5,2.797,11,-1,1,0,0,rectangle_8,11,-1,1,0,0,6,11,-1,1,0,0,0,5,5,6,1,,,,,,,,,,,,,,,,,,,,,,,,,,,,,,,,,,,,,,,,,,,,,,,,,,,,,,,,,,,
,,,,,,,,,,,,,,,,,,,,,,,,,,,,,,,,,,,,,,,,,,,5b3937c57bc6be00010caf12,5fb5da77803f501d7b68b129,2020-11-18_20h38.33.652,Colour_Similarity_Experiment,2020.1.2,Linux x86_64,60,5fb5945709dec70f2d595766,,,,,,,,,,,,,,,,,,,7,FF,50,91,1,0,0,response1disk_5,1,7,1.656,9,-5,1,0,0,rectangle_8,9,-5,1,0,0,6,9,-5,1,0,0,0,6,6,0,1,,,,,,,,,,,,,,,,,,,,,,,,,,,,,,,,,,,,,,,,,,,,,,,,,,,,,,,,,,,
,,,,,,,,,,,,,,,,,,,,,,,,,,,,,,,,,,,,,,,,,,,5b3937c57bc6be00010caf12,5fb5da77803f501d7b68b129,2020-11-18_20h38.33.652,Colour_Similarity_Experiment,2020.1.2,Linux x86_64,60,5fb5945709dec70f2d595766,,,,,,,,,,,,,,,,,,,,FF,,,,,,,,7,1.85,,,,,,,,,,,,,,,,,,,,,,,,,,space,4.305,5,47,77,1,0,0,response1disk,9,-7,-3,1,0,0,rectangle,-7,-3,1,0,0,,6,"[293,322,133,179,87,316,258,78,106,286,147,45,79,124,141,235,273,67,236,229]",-7,-3,1,0,0,0,1,0,0,61,1,,,,,,,,,,,,,,,,,,,,,
,,,,,,,,,,,,,,,,,,,,,,,,,,,,,,,,,,,,,,,,,,,5b3937c57bc6be00010caf12,5fb5da77803f501d7b68b129,2020-11-18_20h38.33.652,Colour_Similarity_Experiment,2020.1.2,Linux x86_64,60,5fb5945709dec70f2d595766,,,,,,,,,,,,,,,,,,,,PF,,,,,,,,7,2.798,,,,,,,,,,,,,,,,,,,,,,,,,,,,6,56,88,1,0,0,response1disk,2,-3,0,1,0,0,rectangle,-3,0,1,0,0,,0,"[293,322,133,179,87,316,258,78,106,286,147,45,79,124,141,235,273,67,236,229]",-3,0,1,0,0,0,2,1,1,130,1,,,,,,,,,,,,,,,,,,,,,
,,,,,,,,,,,,,,,,,,,,,,,,,,,,,,,,,,,,,,,,,,,5b3937c57bc6be00010caf12,5fb5da77803f501d7b68b129,2020-11-18_20h38.33.652,Colour_Similarity_Experiment,2020.1.2,Linux x86_64,60,5fb5945709dec70f2d595766,,,,,,,,,,,,,,,,,,,,FF,,,,,,,,7,3.341,,,,,,,,,,,,,,,,,,,,,,,,,,,,8,50,81,1,0,0,response1disk,2,3,1,1,0,0,rectangle,3,1,1,0,0,,4,"[293,322,133,179,87,316,258,78,106,286,147,45,79,124,141,235,273,67,236,229]",3,1,1,0,0,0,3,2,2,22,1,,,,,,,,,,,,,,,,,,,,,
,,,,,,,,,,,,,,,,,,,,,,,,,,,,,,,,,,,,,,,,,,,5b3937c57bc6be00010caf12,5fb5da77803f501d7b68b129,2020-11-18_20h38.33.652,Colour_Similarity_Experiment,2020.1.2,Linux x86_64,60,5fb5945709dec70f2d595766,,,,,,,,,,,,,,,,,,,,PF,,,,,,,,0,3.539,,,,,,,,,,,,,,,,,,,,,,,,,,,,8,-46,71,1,0,0,response7disk,8,1,1,1,0,0,rectangle,1,1,1,0,0,,5,"[293,322,133,179,87,316,258,78,106,286,147,45,79,124,141,235,273,67,236,229]",1,1,1,0,0,0,4,3,3,153,1,,,,,,,,,,,,,,,,,,,,,
,,,,,,,,,,,,,,,,,,,,,,,,,,,,,,,,,,,,,,,,,,,5b3937c57bc6be00010caf12,5fb5da77803f501d7b68b129,2020-11-18_20h38.33.652,Colour_Similarity_Experiment,2020.1.2,Linux x86_64,60,5fb5945709dec70f2d595766,,,,,,,,,,,,,,,,,,,,FF,,,,,,,,7,3.118,,,,,,,,,,,,,,,,,,,,,,,,,,,,2,41,88,1,0,0,response1disk,5,1,8,1,0,0,rectangle,1,8,1,0,0,,6,"[293,322,133,179,87,316,258,78,106,286,147,45,79,124,141,235,273,67,236,229]",1,8,1,0,0,0,5,4,4,80,1,,,,,,,,,,,,,,,,,,,,,
,,,,,,,,,,,,,,,,,,,,,,,,,,,,,,,,,,,,,,,,,,,5b3937c57bc6be00010caf12,5fb5da77803f501d7b68b129,2020-11-18_20h38.33.652,Colour_Similarity_Experiment,2020.1.2,Linux x86_64,60,5fb5945709dec70f2d595766,,,,,,,,,,,,,,,,,,,,PF,,,,,,,,7,3.274,,,,,,,,,,,,,,,,,,,,,,,,,,,,1,38,75,1,0,0,response1disk,6,-9,0,1,0,0,rectangle,-9,0,1,0,0,,5,"[293,322,133,179,87,316,258,78,106,286,147,45,79,124,141,235,273,67,236,229]",-9,0,1,0,0,0,6,5,5,144,1,,,,,,,,,,,,,,,,,,,,,
,,,,,,,,,,,,,,,,,,,,,,,,,,,,,,,,,,,,,,,,,,,5b3937c57bc6be00010caf12,5fb5da77803f501d7b68b129,2020-11-18_20h38.33.652,Colour_Similarity_Experiment,2020.1.2,Linux x86_64,60,5fb5945709dec70f2d595766,,,,,,,,,,,,,,,,,,,,FF,,,,,,,,0,3.037,,,,,,,,,,,,,,,,,,,,,,,,,,,,1,-43,86,1,0,0,response7disk,1,-3,-2,1,0,0,rectangle,-3,-2,1,0,0,,3,"[293,322,133,179,87,316,258,78,106,286,147,45,79,124,141,235,273,67,236,229]",-3,-2,1,0,0,0,7,6,6,151,1,,,,,,,,,,,,,,,,,,,,,
,,,,,,,,,,,,,,,,,,,,,,,,,,,,,,,,,,,,,,,,,,,5b3937c57bc6be00010caf12,5fb5da77803f501d7b68b129,2020-11-18_20h38.33.652,Colour_Similarity_Experiment,2020.1.2,Linux x86_64,60,5fb5945709dec70f2d595766,,,,,,,,,,,,,,,,,,,,FF,,,,,,,,3,6.063,,,,,,,,,,,,,,,,,,,,,,,,,,,,9,-38,-91,1,0,0,response5disk,9,1,1,1,0,0,rectangle,1,1,1,0,0,,0,"[293,322,133,179,87,316,258,78,106,286,147,45,79,124,141,235,273,67,236,229]",1,1,1,0,0,0,8,7,7,17,1,,,,,,,,,,,,,,,,,,,,,
,,,,,,,,,,,,,,,,,,,,,,,,,,,,,,,,,,,,,,,,,,,5b3937c57bc6be00010caf12,5fb5da77803f501d7b68b129,2020-11-18_20h38.33.652,Colour_Similarity_Experiment,2020.1.2,Linux x86_64,60,5fb5945709dec70f2d595766,,,,,,,,,,,,,,,,,,,,FF,,,,,,,,7,1.818,,,,,,,,,,,,,,,,,,,,,,,,,,,,4,43,82,1,0,0,response1disk,6,-2,-5,1,0,0,rectangle,-2,-5,1,0,0,,1,"[293,322,133,179,87,316,258,78,106,286,147,45,79,124,141,235,273,67,236,229]",-2,-5,1,0,0,0,9,8,8,122,1,,,,,,,,,,,,,,,,,,,,,
,,,,,,,,,,,,,,,,,,,,,,,,,,,,,,,,,,,,,,,,,,,5b3937c57bc6be00010caf12,5fb5da77803f501d7b68b129,2020-11-18_20h38.33.652,Colour_Similarity_Experiment,2020.1.2,Linux x86_64,60,5fb5945709dec70f2d595766,,,,,,,,,,,,,,,,,,,,FF,,,,,,,,7,2.909,,,,,,,,,,,,,,,,,,,,,,,,,,,,2,41,82,1,0,0,response1disk,8,6,2,1,0,0,rectangle,6,2,1,0,0,,0,"[293,322,133,179,87,316,258,78,106,286,147,45,79,124,141,235,273,67,236,229]",6,2,1,0,0,0,10,9,9,62,1,,,,,,,,,,,,,,,,,,,,,
,,,,,,,,,,,,,,,,,,,,,,,,,,,,,,,,,,,,,,,,,,,5b3937c57bc6be00010caf12,5fb5da77803f501d7b68b129,2020-11-18_20h38.33.652,Colour_Similarity_Experiment,2020.1.2,Linux x86_64,60,5fb5945709dec70f2d595766,,,,,,,,,,,,,,,,,,,,FF,,,,,,,,7,1.578,,,,,,,,,,,,,,,,,,,,,,,,,,,,1,38,85,1,0,0,response1disk,5,2,6,1,0,0,rectangle,2,6,1,0,0,,1,"[293,322,133,179,87,316,258,78,106,286,147,45,79,124,141,235,273,67,236,229]",2,6,1,0,0,0,11,10,10,82,1,,,,,,,,,,,,,,,,,,,,,
,,,,,,,,,,,,,,,,,,,,,,,,,,,,,,,,,,,,,,,,,,,5b3937c57bc6be00010caf12,5fb5da77803f501d7b68b129,2020-11-18_20h38.33.652,Colour_Similarity_Experiment,2020.1.2,Linux x86_64,60,5fb5945709dec70f2d595766,,,,,,,,,,,,,,,,,,,,PF,,,,,,,,0,2.222,,,,,,,,,,,,,,,,,,,,,,,,,,,,7,-54,81,1,0,0,response7disk,7,0,-4,1,0,0,rectangle,0,-4,1,0,0,,3,"[293,322,133,179,87,316,258,78,106,286,147,45,79,124,141,235,273,67,236,229]",0,-4,1,0,0,0,12,11,11,51,1,,,,,,,,,,,,,,,,,,,,,
,,,,,,,,,,,,,,,,,,,,,,,,,,,,,,,,,,,,,,,,,,,5b3937c57bc6be00010caf12,5fb5da77803f501d7b68b129,2020-11-18_20h38.33.652,Colour_Similarity_Experiment,2020.1.2,Linux x86_64,60,5fb5945709dec70f2d595766,,,,,,,,,,,,,,,,,,,,PF,,,,,,,,7,2.919,,,,,,,,,,,,,,,,,,,,,,,,,,,,6,58,80,1,0,0,response1disk,4,3,1,1,0,0,rectangle,3,1,1,0,0,,5,"[293,322,133,179,87,316,258,78,106,286,147,45,79,124,141,235,273,67,236,229]",3,1,1,0,0,0,13,12,12,33,1,,,,,,,,,,,,,,,,,,,,,
,,,,,,,,,,,,,,,,,,,,,,,,,,,,,,,,,,,,,,,,,,,5b3937c57bc6be00010caf12,5fb5da77803f501d7b68b129,2020-11-18_20h38.33.652,Colour_Similarity_Experiment,2020.1.2,Linux x86_64,60,5fb5945709dec70f2d595766,,,,,,,,,,,,,,,,,,,,PF,,,,,,,,7,3.366,,,,,,,,,,,,,,,,,,,,,,,,,,,,4,31,89,1,0,0,response1disk,2,-5,6,1,0,0,rectangle,-5,6,1,0,0,,0,"[293,322,133,179,87,316,258,78,106,286,147,45,79,124,141,235,273,67,236,229]",-5,6,1,0,0,0,14,13,13,108,1,,,,,,,,,,,,,,,,,,,,,
,,,,,,,,,,,,,,,,,,,,,,,,,,,,,,,,,,,,,,,,,,,5b3937c57bc6be00010caf12,5fb5da77803f501d7b68b129,2020-11-18_20h38.33.652,Colour_Similarity_Experiment,2020.1.2,Linux x86_64,60,5fb5945709dec70f2d595766,,,,,,,,,,,,,,,,,,,,FF,,,,,,,,7,1.65,,,,,,,,,,,,,,,,,,,,,,,,,,,,3,33,84,1,0,0,response1disk,6,2,-4,1,0,0,rectangle,2,-4,1,0,0,,2,"[293,322,133,179,87,316,258,78,106,286,147,45,79,124,141,235,273,67,236,229]",2,-4,1,0,0,0,15,14,14,95,1,,,,,,,,,,,,,,,,,,,,,
,,,,,,,,,,,,,,,,,,,,,,,,,,,,,,,,,,,,,,,,,,,5b3937c57bc6be00010caf12,5fb5da77803f501d7b68b129,2020-11-18_20h38.33.652,Colour_Similarity_Experiment,2020.1.2,Linux x86_64,60,5fb5945709dec70f2d595766,,,,,,,,,,,,,,,,,,,,PF,,,,,,,,7,1.611,,,,,,,,,,,,,,,,,,,,,,,,,,,,4,32,83,1,0,0,response1disk,8,9,-2,1,0,0,rectangle,9,-2,1,0,0,,1,"[293,322,133,179,87,316,258,78,106,286,147,45,79,124,141,235,273,67,236,229]",9,-2,1,0,0,0,16,15,15,124,1,,,,,,,,,,,,,,,,,,,,,
,,,,,,,,,,,,,,,,,,,,,,,,,,,,,,,,,,,,,,,,,,,5b3937c57bc6be00010caf12,5fb5da77803f501d7b68b129,2020-11-18_20h38.33.652,Colour_Similarity_Experiment,2020.1.2,Linux x86_64,60,5fb5945709dec70f2d595766,,,,,,,,,,,,,,,,,,,,FF,,,,,,,,7,1.627,,,,,,,,,,,,,,,,,,,,,,,,,,,,7,29,79,1,0,0,response1disk,4,6,4,1,0,0,rectangle,6,4,1,0,0,,4,"[293,322,133,179,87,316,258,78,106,286,147,45,79,124,141,235,273,67,236,229]",6,4,1,0,0,0,17,16,16,158,1,,,,,,,,,,,,,,,,,,,,,
,,,,,,,,,,,,,,,,,,,,,,,,,,,,,,,,,,,,,,,,,,,5b3937c57bc6be00010caf12,5fb5da77803f501d7b68b129,2020-11-18_20h38.33.652,Colour_Similarity_Experiment,2020.1.2,Linux x86_64,60,5fb5945709dec70f2d595766,,,,,,,,,,,,,,,,,,,,FF,,,,,,,,4,1.768,,,,,,,,,,,,,,,,,,,,,,,,,,,,9,33,-88,1,0,0,response3disk,1,-7,6,1,0,0,rectangle,-7,6,1,0,0,,6,"[293,322,133,179,87,316,258,78,106,286,147,45,79,124,141,235,273,67,236,229]",-7,6,1,0,0,0,18,17,17,111,1,,,,,,,,,,,,,,,,,,,,,
,,,,,,,,,,,,,,,,,,,,,,,,,,,,,,,,,,,,,,,,,,,5b3937c57bc6be00010caf12,5fb5da77803f501d7b68b129,2020-11-18_20h38.33.652,Colour_Similarity_Experiment,2020.1.2,Linux x86_64,60,5fb5945709dec70f2d595766,,,,,,,,,,,,,,,,,,,,FF,,,,,,,,6,2.867,,,,,,,,,,,,,,,,,,,,,,,,,,,,5,80,26,1,0,0,response1disk,4,23,1,1,0,0,rectangle,23,1,1,0,0,,6,"[293,322,133,179,87,316,258,78,106,286,147,45,79,124,141,235,273,67,236,229]",23,1,1,0,0,0,19,18,18,8,1,,,,,,,,,,,,,,,,,,,,,
,,,,,,,,,,,,,,,,,,,,,,,,,,,,,,,,,,,,,,,,,,,5b3937c57bc6be00010caf12,5fb5da77803f501d7b68b129,2020-11-18_20h38.33.652,Colour_Similarity_Experiment,2020.1.2,Linux x86_64,60,5fb5945709dec70f2d595766,,,,,,,,,,,,,,,,,,,,FF,,,,,,,,7,2.341,,,,,,,,,,,,,,,,,,,,,,,,,,,,6,37,67,1,0,0,response1disk,8,5,2,1,0,0,rectangle,5,2,1,0,0,,3,"[293,322,133,179,87,316,258,78,106,286,147,45,79,124,141,235,273,67,236,229]",5,2,1,0,0,0,20,19,19,133,1,,,,,,,,,,,,,,,,,,,,,
,,,,,,,,,,,,,,,,,,,,,,,,,,,,,,,,,,,,,,,,,,,5b3937c57bc6be00010caf12,5fb5da77803f501d7b68b129,2020-11-18_20h38.33.652,Colour_Similarity_Experiment,2020.1.2,Linux x86_64,60,5fb5945709dec70f2d595766,,,,,,,,,,,,,,,,,,,,FF,,,,,,,,0,1.467,,,,,,,,,,,,,,,,,,,,,,,,,,,,2,-41,76,1,0,0,response7disk,2,3,5,1,0,0,rectangle,3,5,1,0,0,,5,"[293,322,133,179,87,316,258,78,106,286,147,45,79,124,141,235,273,67,236,229]",3,5,1,0,0,0,21,20,20,142,1,,,,,,,,,,,,,,,,,,,,,
,,,,,,,,,,,,,,,,,,,,,,,,,,,,,,,,,,,,,,,,,,,5b3937c57bc6be00010caf12,5fb5da77803f501d7b68b129,2020-11-18_20h38.33.652,Colour_Similarity_Experiment,2020.1.2,Linux x86_64,60,5fb5945709dec70f2d595766,,,,,,,,,,,,,,,,,,,,PF,,,,,,,,7,1.49,,,,,,,,,,,,,,,,,,,,,,,,,,,,7,34,87,1,0,0,response1disk,4,6,6,1,0,0,rectangle,6,6,1,0,0,,4,"[293,322,133,179,87,316,258,78,106,286,147,45,79,124,141,235,273,67,236,229]",6,6,1,0,0,0,22,21,21,43,1,,,,,,,,,,,,,,,,,,,,,
,,,,,,,,,,,,,,,,,,,,,,,,,,,,,,,,,,,,,,,,,,,5b3937c57bc6be00010caf12,5fb5da77803f501d7b68b129,2020-11-18_20h38.33.652,Colour_Similarity_Experiment,2020.1.2,Linux x86_64,60,5fb5945709dec70f2d595766,,,,,,,,,,,,,,,,,,,,FF,,,,,,,,7,2.708,,,,,,,,,,,,,,,,,,,,,,,,,,,,6,45,73,1,0,0,response1disk,1,8,5,1,0,0,rectangle,8,5,1,0,0,,7,"[293,322,133,179,87,316,258,78,106,286,147,45,79,124,141,235,273,67,236,229]",8,5,1,0,0,0,23,22,22,5,1,,,,,,,,,,,,,,,,,,,,,
,,,,,,,,,,,,,,,,,,,,,,,,,,,,,,,,,,,,,,,,,,,5b3937c57bc6be00010caf12,5fb5da77803f501d7b68b129,2020-11-18_20h38.33.652,Colour_Similarity_Experiment,2020.1.2,Linux x86_64,60,5fb5945709dec70f2d595766,,,,,,,,,,,,,,,,,,,,PF,,,,,,,,6,6.597,,,,,,,,,,,,,,,,,,,,,,,,,,,,5,77,37,1,0,0,response1disk,9,9,4,1,0,0,rectangle,9,4,1,0,0,,1,"[293,322,133,179,87,316,258,78,106,286,147,45,79,124,141,235,273,67,236,229]",9,4,1,0,0,0,24,23,23,136,1,,,,,,,,,,,,,,,,,,,,,
,,,,,,,,,,,,,,,,,,,,,,,,,,,,,,,,,,,,,,,,,,,5b3937c57bc6be00010caf12,5fb5da77803f501d7b68b129,2020-11-18_20h38.33.652,Colour_Similarity_Experiment,2020.1.2,Linux x86_64,60,5fb5945709dec70f2d595766,,,,,,,,,,,,,,,,,,,,FF,,,,,,,,7,1.698,,,,,,,,,,,,,,,,,,,,,,,,,,,,9,39,99,1,0,0,response1disk,6,0,7,1,0,0,rectangle,0,7,1,0,0,,1,"[293,322,133,179,87,316,258,78,106,286,147,45,79,124,141,235,273,67,236,229]",0,7,1,0,0,0,25,24,24,117,1,,,,,,,,,,,,,,,,,,,,,
,,,,,,,,,,,,,,,,,,,,,,,,,,,,,,,,,,,,,,,,,,,5b3937c57bc6be00010caf12,5fb5da77803f501d7b68b129,2020-11-18_20h38.33.652,Colour_Similarity_Experiment,2020.1.2,Linux x86_64,60,5fb5945709dec70f2d595766,,,,,,,,,,,,,,,,,,,,FF,,,,,,,,4,6.066,,,,,,,,,,,,,,,,,,,,,,,,,,,,1,27,-106,1,0,0,response3disk,9,-5,7,1,0,0,rectangle,-5,7,1,0,0,,0,"[293,322,133,179,87,316,258,78,106,286,147,45,79,124,141,235,273,67,236,229]",-5,7,1,0,0,0,26,25,25,123,1,,,,,,,,,,,,,,,,,,,,,
,,,,,,,,,,,,,,,,,,,,,,,,,,,,,,,,,,,,,,,,,,,5b3937c57bc6be00010caf12,5fb5da77803f501d7b68b129,2020-11-18_20h38.33.652,Colour_Similarity_Experiment,2020.1.2,Linux x86_64,60,5fb5945709dec70f2d595766,,,,,,,,,,,,,,,,,,,,PF,,,,,,,,7,1.566,,,,,,,,,,,,,,,,,,,,,,,,,,,,7,34,93,1,0,0,response1disk,1,1,3,1,0,0,rectangle,1,3,1,0,0,,7,"[293,322,133,179,87,316,258,78,106,286,147,45,79,124,141,235,273,67,236,229]",1,3,1,0,0,0,27,26,26,53,1,,,,,,,,,,,,,,,,,,,,,
,,,,,,,,,,,,,,,,,,,,,,,,,,,,,,,,,,,,,,,,,,,5b3937c57bc6be00010caf12,5fb5da77803f501d7b68b129,2020-11-18_20h38.33.652,Colour_Similarity_Experiment,2020.1.2,Linux x86_64,60,5fb5945709dec70f2d595766,,,,,,,,,,,,,,,,,,,,FF,,,,,,,,5,1.883,,,,,,,,,,,,,,,,,,,,,,,,,,,,6,81,-41,1,0,0,response3disk,3,-2,-2,1,0,0,rectangle,-2,-2,1,0,0,,7,"[293,322,133,179,87,316,258,78,106,286,147,45,79,124,141,235,273,67,236,229]",-2,-2,1,0,0,0,28,27,27,21,1,,,,,,,,,,,,,,,,,,,,,
,,,,,,,,,,,,,,,,,,,,,,,,,,,,,,,,,,,,,,,,,,,5b3937c57bc6be00010caf12,5fb5da77803f501d7b68b129,2020-11-18_20h38.33.652,Colour_Similarity_Experiment,2020.1.2,Linux x86_64,60,5fb5945709dec70f2d595766,,,,,,,,,,,,,,,,,,,,PF,,,,,,,,3,3.985,,,,,,,,,,,,,,,,,,,,,,,,,,,,4,-40,-104,1,0,0,response5disk,5,8,-2,1,0,0,rectangle,8,-2,1,0,0,,2,"[293,322,133,179,87,316,258,78,106,286,147,45,79,124,141,235,273,67,236,229]",8,-2,1,0,0,0,29,28,28,49,1,,,,,,,,,,,,,,,,,,,,,
,,,,,,,,,,,,,,,,,,,,,,,,,,,,,,,,,,,,,,,,,,,5b3937c57bc6be00010caf12,5fb5da77803f501d7b68b129,2020-11-18_20h38.33.652,Colour_Similarity_Experiment,2020.1.2,Linux x86_64,60,5fb5945709dec70f2d595766,,,,,,,,,,,,,,,,,,,,FF,,,,,,,,7,1.205,,,,,,,,,,,,,,,,,,,,,,,,,,,,8,30,86,1,0,0,response1disk,4,-11,5,1,0,0,rectangle,-11,5,1,0,0,,6,"[293,322,133,179,87,316,258,78,106,286,147,45,79,124,141,235,273,67,236,229]",-11,5,1,0,0,0,30,29,29,88,1,,,,,,,,,,,,,,,,,,,,,
,,,,,,,,,,,,,,,,,,,,,,,,,,,,,,,,,,,,,,,,,,,5b3937c57bc6be00010caf12,5fb5da77803f501d7b68b129,2020-11-18_20h38.33.652,Colour_Similarity_Experiment,2020.1.2,Linux x86_64,60,5fb5945709dec70f2d595766,,,,,,,,,,,,,,,,,,,,PF,,,,,,,,5,4.81,,,,,,,,,,,,,,,,,,,,,,,,,,,,6,78,-46,1,0,0,response3disk,8,-6,2,1,0,0,rectangle,-6,2,1,0,0,,0,"[293,322,133,179,87,316,258,78,106,286,147,45,79,124,141,235,273,67,236,229]",-6,2,1,0,0,0,31,30,30,64,1,,,,,,,,,,,,,,,,,,,,,
,,,,,,,,,,,,,,,,,,,,,,,,,,,,,,,,,,,,,,,,,,,5b3937c57bc6be00010caf12,5fb5da77803f501d7b68b129,2020-11-18_20h38.33.652,Colour_Similarity_Experiment,2020.1.2,Linux x86_64,60,5fb5945709dec70f2d595766,,,,,,,,,,,,,,,,,,,,PF,,,,,,,,7,1.549,,,,,,,,,,,,,,,,,,,,,,,,,,,,1,34,91,1,0,0,response1disk,4,-1,-5,1,0,0,rectangle,-1,-5,1,0,0,,3,"[293,322,133,179,87,316,258,78,106,286,147,45,79,124,141,235,273,67,236,229]",-1,-5,1,0,0,0,32,31,31,139,1,,,,,,,,,,,,,,,,,,,,,
,,,,,,,,,,,,,,,,,,,,,,,,,,,,,,,,,,,,,,,,,,,5b3937c57bc6be00010caf12,5fb5da77803f501d7b68b129,2020-11-18_20h38.33.652,Colour_Similarity_Experiment,2020.1.2,Linux x86_64,60,5fb5945709dec70f2d595766,,,,,,,,,,,,,,,,,,,,PF,,,,,,,,7,2.673,,,,,,,,,,,,,,,,,,,,,,,,,,,,8,35,79,1,0,0,response1disk,4,6,3,1,0,0,rectangle,6,3,1,0,0,,4,"[293,322,133,179,87,316,258,78,106,286,147,45,79,124,141,235,273,67,236,229]",6,3,1,0,0,0,33,32,32,78,1,,,,,,,,,,,,,,,,,,,,,
,,,,,,,,,,,,,,,,,,,,,,,,,,,,,,,,,,,,,,,,,,,5b3937c57bc6be00010caf12,5fb5da77803f501d7b68b129,2020-11-18_20h38.33.652,Colour_Similarity_Experiment,2020.1.2,Linux x86_64,60,5fb5945709dec70f2d595766,,,,,,,,,,,,,,,,,,,,FF,,,,,,,,7,3.505,,,,,,,,,,,,,,,,,,,,,,,,,,,,2,50,89,1,0,0,response1disk,4,0,3,1,0,0,rectangle,0,3,1,0,0,,7,"[293,322,133,179,87,316,258,78,106,286,147,45,79,124,141,235,273,67,236,229]",0,3,1,0,0,0,34,33,33,145,1,,,,,,,,,,,,,,,,,,,,,
,,,,,,,,,,,,,,,,,,,,,,,,,,,,,,,,,,,,,,,,,,,5b3937c57bc6be00010caf12,5fb5da77803f501d7b68b129,2020-11-18_20h38.33.652,Colour_Similarity_Experiment,2020.1.2,Linux x86_64,60,5fb5945709dec70f2d595766,,,,,,,,,,,,,,,,,,,,PF,,,,,,,,7,1.824,,,,,,,,,,,,,,,,,,,,,,,,,,,,9,45,88,1,0,0,response1disk,2,7,3,1,0,0,rectangle,7,3,1,0,0,,7,"[293,322,133,179,87,316,258,78,106,286,147,45,79,124,141,235,273,67,236,229]",7,3,1,0,0,0,35,34,34,157,1,,,,,,,,,,,,,,,,,,,,,
,,,,,,,,,,,,,,,,,,,,,,,,,,,,,,,,,,,,,,,,,,,5b3937c57bc6be00010caf12,5fb5da77803f501d7b68b129,2020-11-18_20h38.33.652,Colour_Similarity_Experiment,2020.1.2,Linux x86_64,60,5fb5945709dec70f2d595766,,,,,,,,,,,,,,,,,,,,PF,,,,,,,,1,1.583,,,,,,,,,,,,,,,,,,,,,,,,,,,,6,-89,51,1,0,0,response7disk,5,-7,2,1,0,0,rectangle,-7,2,1,0,0,,3,"[293,322,133,179,87,316,258,78,106,286,147,45,79,124,141,235,273,67,236,229]",-7,2,1,0,0,0,36,35,35,59,1,,,,,,,,,,,,,,,,,,,,,
,,,,,,,,,,,,,,,,,,,,,,,,,,,,,,,,,,,,,,,,,,,5b3937c57bc6be00010caf12,5fb5da77803f501d7b68b129,2020-11-18_20h38.33.652,Colour_Similarity_Experiment,2020.1.2,Linux x86_64,60,5fb5945709dec70f2d595766,,,,,,,,,,,,,,,,,,,,FF,,,,,,,,7,1.514,,,,,,,,,,,,,,,,,,,,,,,,,,,,9,26,82,1,0,0,response1disk,7,9,5,1,0,0,rectangle,9,5,1,0,0,,1,"[293,322,133,179,87,316,258,78,106,286,147,45,79,124,141,235,273,67,236,229]",9,5,1,0,0,0,37,36,36,100,1,,,,,,,,,,,,,,,,,,,,,
,,,,,,,,,,,,,,,,,,,,,,,,,,,,,,,,,,,,,,,,,,,5b3937c57bc6be00010caf12,5fb5da77803f501d7b68b129,2020-11-18_20h38.33.652,Colour_Similarity_Experiment,2020.1.2,Linux x86_64,60,5fb5945709dec70f2d595766,,,,,,,,,,,,,,,,,,,,FF,,,,,,,,7,1.37,,,,,,,,,,,,,,,,,,,,,,,,,,,,3,33,83,1,0,0,response1disk,8,-11,-3,1,0,0,rectangle,-11,-3,1,0,0,,6,"[293,322,133,179,87,316,258,78,106,286,147,45,79,124,141,235,273,67,236,229]",-11,-3,1,0,0,0,38,37,37,44,1,,,,,,,,,,,,,,,,,,,,,
,,,,,,,,,,,,,,,,,,,,,,,,,,,,,,,,,,,,,,,,,,,5b3937c57bc6be00010caf12,5fb5da77803f501d7b68b129,2020-11-18_20h38.33.652,Colour_Similarity_Experiment,2020.1.2,Linux x86_64,60,5fb5945709dec70f2d595766,,,,,,,,,,,,,,,,,,,,PF,,,,,,,,6,1.961,,,,,,,,,,,,,,,,,,,,,,,,,,,,9,69,25,1,0,0,response1disk,7,5,4,1,0,0,rectangle,5,4,1,0,0,,4,"[293,322,133,179,87,316,258,78,106,286,147,45,79,124,141,235,273,67,236,229]",5,4,1,0,0,0,39,38,38,121,1,,,,,,,,,,,,,,,,,,,,,
,,,,,,,,,,,,,,,,,,,,,,,,,,,,,,,,,,,,,,,,,,,5b3937c57bc6be00010caf12,5fb5da77803f501d7b68b129,2020-11-18_20h38.33.652,Colour_Similarity_Experiment,2020.1.2,Linux x86_64,60,5fb5945709dec70f2d595766,,,,,,,,,,,,,,,,,,,,FF,,,,,,,,5,2.393,,,,,,,,,,,,,,,,,,,,,,,,,,,,4,66,-21,1,0,0,response3disk,2,7,3,1,0,0,rectangle,7,3,1,0,0,,1,"[293,322,133,179,87,316,258,78,106,286,147,45,79,124,141,235,273,67,236,229]",7,3,1,0,0,0,40,39,39,13,1,,,,,,,,,,,,,,,,,,,,,
,,,,,,,,,,,,,,,,,,,,,,,,,,,,,,,,,,,,,,,,,,,5b3937c57bc6be00010caf12,5fb5da77803f501d7b68b129,2020-11-18_20h38.33.652,Colour_Similarity_Experiment,2020.1.2,Linux x86_64,60,5fb5945709dec70f2d595766,,,,,,,,,,,,,,,,,,,,PF,,,,,,,,3,4,,,,,,,,,,,,,,,,,,,,,,,,,,,,6,-64,-94,1,0,0,response5disk,7,3,0,1,0,0,rectangle,3,0,1,0,0,,6,"[293,322,133,179,87,316,258,78,106,286,147,45,79,124,141,235,273,67,236,229]",3,0,1,0,0,0,41,40,40,50,1,,,,,,,,,,,,,,,,,,,,,
,,,,,,,,,,,,,,,,,,,,,,,,,,,,,,,,,,,,,,,,,,,5b3937c57bc6be00010caf12,5fb5da77803f501d7b68b129,2020-11-18_20h38.33.652,Colour_Similarity_Experiment,2020.1.2,Linux x86_64,60,5fb5945709dec70f2d595766,,,,,,,,,,,,,,,,,,,,PF,,,,,,,,7,1.93,,,,,,,,,,,,,,,,,,,,,,,,,,,,2,45,88,1,0,0,response1disk,5,1,-5,1,0,0,rectangle,1,-5,1,0,0,,5,"[293,322,133,179,87,316,258,78,106,286,147,45,79,124,141,235,273,67,236,229]",1,-5,1,0,0,0,42,41,41,147,1,,,,,,,,,,,,,,,,,,,,,
,,,,,,,,,,,,,,,,,,,,,,,,,,,,,,,,,,,,,,,,,,,5b3937c57bc6be00010caf12,5fb5da77803f501d7b68b129,2020-11-18_20h38.33.652,Colour_Similarity_Experiment,2020.1.2,Linux x86_64,60,5fb5945709dec70f2d595766,,,,,,,,,,,,,,,,,,,,FF,,,,,,,,7,1.301,,,,,,,,,,,,,,,,,,,,,,,,,,,,1,27,78,1,0,0,response1disk,7,-15,-1,1,0,0,rectangle,-15,-1,1,0,0,,1,"[293,322,133,179,87,316,258,78,106,286,147,45,79,124,141,235,273,67,236,229]",-15,-1,1,0,0,0,43,42,42,137,1,,,,,,,,,,,,,,,,,,,,,
,,,,,,,,,,,,,,,,,,,,,,,,,,,,,,,,,,,,,,,,,,,5b3937c57bc6be00010caf12,5fb5da77803f501d7b68b129,2020-11-18_20h38.33.652,Colour_Similarity_Experiment,2020.1.2,Linux x86_64,60,5fb5945709dec70f2d595766,,,,,,,,,,,,,,,,,,,,PF,,,,,,,,7,1.384,,,,,,,,,,,,,,,,,,,,,,,,,,,,3,49,80,1,0,0,response1disk,8,-6,3,1,0,0,rectangle,-6,3,1,0,0,,4,"[293,322,133,179,87,316,258,78,106,286,147,45,79,124,141,235,273,67,236,229]",-6,3,1,0,0,0,44,43,43,3,1,,,,,,,,,,,,,,,,,,,,,
,,,,,,,,,,,,,,,,,,,,,,,,,,,,,,,,,,,,,,,,,,,5b3937c57bc6be00010caf12,5fb5da77803f501d7b68b129,2020-11-18_20h38.33.652,Colour_Similarity_Experiment,2020.1.2,Linux x86_64,60,5fb5945709dec70f2d595766,,,,,,,,,,,,,,,,,,,,PF,,,,,,,,7,1.868,,,,,,,,,,,,,,,,,,,,,,,,,,,,5,42,86,1,0,0,response1disk,2,1,7,1,0,0,rectangle,-50,-79,1,0,0,3,3,"[293,322,133,179,87,316,258,78,106,286,147,45,79,124,141,235,273,67,236,229]",11,-4,1,0,0,0,45,44,44,129,1,response5disk_3,rectangle,,,,,,,,,,,,,,,,,,,
,,,,,,,,,,,,,,,,,,,,,,,,,,,,,,,,,,,,,,,,,,,5b3937c57bc6be00010caf12,5fb5da77803f501d7b68b129,2020-11-18_20h38.33.652,Colour_Similarity_Experiment,2020.1.2,Linux x86_64,60,5fb5945709dec70f2d595766,,,,,,,,,,,,,,,,,,,,PF,,,,,,,,6,2.467,,,,,,,,,,,,,,,,,,,,,,,,,,,,4,85,31,1,0,0,response1disk,6,-9,-4,1,0,0,rectangle,-9,-4,1,0,0,3,4,"[293,322,133,179,87,316,258,78,106,286,147,45,79,124,141,235,273,67,236,229]",-9,-4,1,0,0,0,46,45,45,120,1,,,,,,,,,,,,,,,,,,,,,
,,,,,,,,,,,,,,,,,,,,,,,,,,,,,,,,,,,,,,,,,,,5b3937c57bc6be00010caf12,5fb5da77803f501d7b68b129,2020-11-18_20h38.33.652,Colour_Similarity_Experiment,2020.1.2,Linux x86_64,60,5fb5945709dec70f2d595766,,,,,,,,,,,,,,,,,,,,PF,,,,,,,,3,1.842,,,,,,,,,,,,,,,,,,,,,,,,,,,,1,-62,-87,1,0,0,response5disk,9,17,2,1,0,0,rectangle,17,2,1,0,0,3,6,"[293,322,133,179,87,316,258,78,106,286,147,45,79,124,141,235,273,67,236,229]",17,2,1,0,0,0,47,46,46,15,1,,,,,,,,,,,,,,,,,,,,,
,,,,,,,,,,,,,,,,,,,,,,,,,,,,,,,,,,,,,,,,,,,5b3937c57bc6be00010caf12,5fb5da77803f501d7b68b129,2020-11-18_20h38.33.652,Colour_Similarity_Experiment,2020.1.2,Linux x86_64,60,5fb5945709dec70f2d595766,,,,,,,,,,,,,,,,,,,,PF,,,,,,,,7,1.412,,,,,,,,,,,,,,,,,,,,,,,,,,,,4,34,71,1,0,0,response1disk,1,-8,9,1,0,0,rectangle,-8,9,1,0,0,3,4,"[293,322,133,179,87,316,258,78,106,286,147,45,79,124,141,235,273,67,236,229]",-8,9,1,0,0,0,48,47,47,115,1,,,,,,,,,,,,,,,,,,,,,
,,,,,,,,,,,,,,,,,,,,,,,,,,,,,,,,,,,,,,,,,,,5b3937c57bc6be00010caf12,5fb5da77803f501d7b68b129,2020-11-18_20h38.33.652,Colour_Similarity_Experiment,2020.1.2,Linux x86_64,60,5fb5945709dec70f2d595766,,,,,,,,,,,,,,,,,,,,PF,,,,,,,,7,1.616,,,,,,,,,,,,,,,,,,,,,,,,,,,,2,35,73,1,0,0,response1disk,7,-13,3,1,0,0,rectangle,-13,3,1,0,0,3,5,"[293,322,133,179,87,316,258,78,106,286,147,45,79,124,141,235,273,67,236,229]",-13,3,1,0,0,0,49,48,48,107,1,,,,,,,,,,,,,,,,,,,,,
,,,,,,,,,,,,,,,,,,,,,,,,,,,,,,,,,,,,,,,,,,,5b3937c57bc6be00010caf12,5fb5da77803f501d7b68b129,2020-11-18_20h38.33.652,Colour_Similarity_Experiment,2020.1.2,Linux x86_64,60,5fb5945709dec70f2d595766,,,,,,,,,,,,,,,,,,,,PF,,,,,,,,7,2,,,,,,,,,,,,,,,,,,,,,,,,,,,,2,38,83,1,0,0,response1disk,8,16,3,1,0,0,rectangle,16,3,1,0,0,3,3,"[293,322,133,179,87,316,258,78,106,286,147,45,79,124,141,235,273,67,236,229]",16,3,1,0,0,0,50,49,49,52,1,,,,,,,,,,,,,,,,,,,,,
,,,,,,,,,,,,,,,,,,,,,,,,,,,,,,,,,,,,,,,,,,,5b3937c57bc6be00010caf12,5fb5da77803f501d7b68b129,2020-11-18_20h38.33.652,Colour_Similarity_Experiment,2020.1.2,Linux x86_64,60,5fb5945709dec70f2d595766,,,,,,,,,,,,,,,,,,,,FF,,,,,,,,4,1.812,,,,,,,,,,,,,,,,,,,,,,,,,,,,7,43,-93,1,0,0,response3disk,8,1,-1,1,0,0,rectangle,1,-1,1,0,0,3,1,"[293,322,133,179,87,316,258,78,106,286,147,45,79,124,141,235,273,67,236,229]",1,-1,1,0,0,0,51,50,50,97,1,,,,,,,,,,,,,,,,,,,,,
,,,,,,,,,,,,,,,,,,,,,,,,,,,,,,,,,,,,,,,,,,,5b3937c57bc6be00010caf12,5fb5da77803f501d7b68b129,2020-11-18_20h38.33.652,Colour_Similarity_Experiment,2020.1.2,Linux x86_64,60,5fb5945709dec70f2d595766,,,,,,,,,,,,,,,,,,,,PF,,,,,,,,7,1.433,,,,,,,,,,,,,,,,,,,,,,,,,,,,9,32,92,1,0,0,response1disk,3,13,0,1,0,0,rectangle,13,0,1,0,0,3,4,"[293,322,133,179,87,316,258,78,106,286,147,45,79,124,141,235,273,67,236,229]",13,0,1,0,0,0,52,51,51,119,1,,,,,,,,,,,,,,,,,,,,,
,,,,,,,,,,,,,,,,,,,,,,,,,,,,,,,,,,,,,,,,,,,5b3937c57bc6be00010caf12,5fb5da77803f501d7b68b129,2020-11-18_20h38.33.652,Colour_Similarity_Experiment,2020.1.2,Linux x86_64,60,5fb5945709dec70f2d595766,,,,,,,,,,,,,,,,,,,,PF,,,,,,,,5,2.316,,,,,,,,,,,,,,,,,,,,,,,,,,,,8,79,-58,1,0,0,response3disk,5,7,-2,1,0,0,rectangle,7,-2,1,0,0,3,4,"[293,322,133,179,87,316,258,78,106,286,147,45,79,124,141,235,273,67,236,229]",7,-2,1,0,0,0,53,52,52,98,1,,,,,,,,,,,,,,,,,,,,,
,,,,,,,,,,,,,,,,,,,,,,,,,,,,,,,,,,,,,,,,,,,5b3937c57bc6be00010caf12,5fb5da77803f501d7b68b129,2020-11-18_20h38.33.652,Colour_Similarity_Experiment,2020.1.2,Linux x86_64,60,5fb5945709dec70f2d595766,,,,,,,,,,,,,,,,,,,,PF,,,,,,,,7,1.204,,,,,,,,,,,,,,,,,,,,,,,,,,,,1,32,83,1,0,0,response1disk,7,-6,7,1,0,0,rectangle,-6,7,1,0,0,3,4,"[293,322,133,179,87,316,258,78,106,286,147,45,79,124,141,235,273,67,236,229]",-6,7,1,0,0,0,54,53,53,150,1,,,,,,,,,,,,,,,,,,,,,
,,,,,,,,,,,,,,,,,,,,,,,,,,,,,,,,,,,,,,,,,,,5b3937c57bc6be00010caf12,5fb5da77803f501d7b68b129,2020-11-18_20h38.33.652,Colour_Similarity_Experiment,2020.1.2,Linux x86_64,60,5fb5945709dec70f2d595766,,,,,,,,,,,,,,,,,,,,FF,,,,,,,,7,1.972,,,,,,,,,,,,,,,,,,,,,,,,,,,,7,33,79,1,0,0,response1disk,1,8,0,1,0,0,rectangle,8,0,1,0,0,3,1,"[293,322,133,179,87,316,258,78,106,286,147,45,79,124,141,235,273,67,236,229]",8,0,1,0,0,0,55,54,54,132,1,,,,,,,,,,,,,,,,,,,,,
,,,,,,,,,,,,,,,,,,,,,,,,,,,,,,,,,,,,,,,,,,,5b3937c57bc6be00010caf12,5fb5da77803f501d7b68b129,2020-11-18_20h38.33.652,Colour_Similarity_Experiment,2020.1.2,Linux x86_64,60,5fb5945709dec70f2d595766,,,,,,,,,,,,,,,,,,,,PF,,,,,,,,7,1.19,,,,,,,,,,,,,,,,,,,,,,,,,,,,4,31,74,1,0,0,response1disk,7,-11,4,1,0,0,rectangle,-11,4,1,0,0,3,6,"[293,322,133,179,87,316,258,78,106,286,147,45,79,124,141,235,273,67,236,229]",-11,4,1,0,0,0,56,55,55,38,1,,,,,,,,,,,,,,,,,,,,,
,,,,,,,,,,,,,,,,,,,,,,,,,,,,,,,,,,,,,,,,,,,5b3937c57bc6be00010caf12,5fb5da77803f501d7b68b129,2020-11-18_20h38.33.652,Colour_Similarity_Experiment,2020.1.2,Linux x86_64,60,5fb5945709dec70f2d595766,,,,,,,,,,,,,,,,,,,,PF,,,,,,,,0,2.735,,,,,,,,,,,,,,,,,,,,,,,,,,,,3,-55,103,1,0,0,response7disk,3,3,-3,1,0,0,rectangle,3,-3,1,0,0,3,3,"[293,322,133,179,87,316,258,78,106,286,147,45,79,124,141,235,273,67,236,229]",3,-3,1,0,0,0,57,56,56,4,1,,,,,,,,,,,,,,,,,,,,,
,,,,,,,,,,,,,,,,,,,,,,,,,,,,,,,,,,,,,,,,,,,5b3937c57bc6be00010caf12,5fb5da77803f501d7b68b129,2020-11-18_20h38.33.652,Colour_Similarity_Experiment,2020.1.2,Linux x86_64,60,5fb5945709dec70f2d595766,,,,,,,,,,,,,,,,,,,,FF,,,,,,,,6,3.139,,,,,,,,,,,,,,,,,,,,,,,,,,,,2,75,59,1,0,0,response1disk,9,-5,-4,1,0,0,rectangle,-5,-4,1,0,0,3,3,"[293,322,133,179,87,316,258,78,106,286,147,45,79,124,141,235,273,67,236,229]",-5,-4,1,0,0,0,58,57,57,72,1,,,,,,,,,,,,,,,,,,,,,
,,,,,,,,,,,,,,,,,,,,,,,,,,,,,,,,,,,,,,,,,,,5b3937c57bc6be00010caf12,5fb5da77803f501d7b68b129,2020-11-18_20h38.33.652,Colour_Similarity_Experiment,2020.1.2,Linux x86_64,60,5fb5945709dec70f2d595766,,,,,,,,,,,,,,,,,,,,PF,,,,,,,,0,1.187,,,,,,,,,,,,,,,,,,,,,,,,,,,,5,-39,83,1,0,0,response7disk,5,-20,-5,1,0,0,rectangle,-20,-5,1,0,0,3,4,"[293,322,133,179,87,316,258,78,106,286,147,45,79,124,141,235,273,67,236,229]",-20,-5,1,0,0,0,59,58,58,94,1,,,,,,,,,,,,,,,,,,,,,
,,,,,,,,,,,,,,,,,,,,,,,,,,,,,,,,,,,,,,,,,,,5b3937c57bc6be00010caf12,5fb5da77803f501d7b68b129,2020-11-18_20h38.33.652,Colour_Similarity_Experiment,2020.1.2,Linux x86_64,60,5fb5945709dec70f2d595766,,,,,,,,,,,,,,,,,,,,FF,,,,,,,,7,1.595,,,,,,,,,,,,,,,,,,,,,,,,,,,,8,29,88,1,0,0,response1disk,1,2,2,1,0,0,rectangle,2,2,1,0,0,3,7,"[293,322,133,179,87,316,258,78,106,286,147,45,79,124,141,235,273,67,236,229]",2,2,1,0,0,0,60,59,59,20,1,,,,,,,,,,,,,,,,,,,,,
,,,,,,,,,,,,,,,,,,,,,,,,,,,,,,,,,,,,,,,,,,,5b3937c57bc6be00010caf12,5fb5da77803f501d7b68b129,2020-11-18_20h38.33.652,Colour_Similarity_Experiment,2020.1.2,Linux x86_64,60,5fb5945709dec70f2d595766,,,,,,,,,,,,,,,,,,,,FF,,,,,,,,7,1.309,,,,,,,,,,,,,,,,,,,,,,,,,,,,5,27,90,1,0,0,response1disk,1,9,-5,1,0,0,rectangle,9,-5,1,0,0,3,5,"[293,322,133,179,87,316,258,78,106,286,147,45,79,124,141,235,273,67,236,229]",9,-5,1,0,0,0,61,60,60,131,1,,,,,,,,,,,,,,,,,,,,,
,,,,,,,,,,,,,,,,,,,,,,,,,,,,,,,,,,,,,,,,,,,5b3937c57bc6be00010caf12,5fb5da77803f501d7b68b129,2020-11-18_20h38.33.652,Colour_Similarity_Experiment,2020.1.2,Linux x86_64,60,5fb5945709dec70f2d595766,,,,,,,,,,,,,,,,,,,,PF,,,,,,,,4,2.204,,,,,,,,,,,,,,,,,,,,,,,,,,,,8,27,-75,1,0,0,response3disk,1,2,6,1,0,0,rectangle,2,6,1,0,0,3,5,"[293,322,133,179,87,316,258,78,106,286,147,45,79,124,141,235,273,67,236,229]",2,6,1,0,0,0,62,61,61,57,1,,,,,,,,,,,,,,,,,,,,,
,,,,,,,,,,,,,,,,,,,,,,,,,,,,,,,,,,,,,,,,,,,5b3937c57bc6be00010caf12,5fb5da77803f501d7b68b129,2020-11-18_20h38.33.652,Colour_Similarity_Experiment,2020.1.2,Linux x86_64,60,5fb5945709dec70f2d595766,,,,,,,,,,,,,,,,,,,,PF,,,,,,,,7,3.3,,,,,,,,,,,,,,,,,,,,,,,,,,,,4,38,108,1,0,0,response1disk,9,3,5,1,0,0,rectangle,3,5,1,0,0,3,3,"[293,322,133,179,87,316,258,78,106,286,147,45,79,124,141,235,273,67,236,229]",3,5,1,0,0,0,63,62,62,75,1,,,,,,,,,,,,,,,,,,,,,
,,,,,,,,,,,,,,,,,,,,,,,,,,,,,,,,,,,,,,,,,,,5b3937c57bc6be00010caf12,5fb5da77803f501d7b68b129,2020-11-18_20h38.33.652,Colour_Similarity_Experiment,2020.1.2,Linux x86_64,60,5fb5945709dec70f2d595766,,,,,,,,,,,,,,,,,,,,PF,,,,,,,,1,3.351,,,,,,,,,,,,,,,,,,,,,,,,,,,,8,-74,38,1,0,0,response7disk,9,-16,-2,1,0,0,rectangle,-16,-2,1,0,0,3,5,"[293,322,133,179,87,316,258,78,106,286,147,45,79,124,141,235,273,67,236,229]",-16,-2,1,0,0,0,64,63,63,42,1,,,,,,,,,,,,,,,,,,,,,
,,,,,,,,,,,,,,,,,,,,,,,,,,,,,,,,,,,,,,,,,,,5b3937c57bc6be00010caf12,5fb5da77803f501d7b68b129,2020-11-18_20h38.33.652,Colour_Similarity_Experiment,2020.1.2,Linux x86_64,60,5fb5945709dec70f2d595766,,,,,,,,,,,,,,,,,,,,FF,,,,,,,,4,3.853,,,,,,,,,,,,,,,,,,,,,,,,,,,,5,57,-85,1,0,0,response3disk,7,-5,-2,1,0,0,rectangle,-5,-2,1,0,0,3,4,"[293,322,133,179,87,316,258,78,106,286,147,45,79,124,141,235,273,67,236,229]",-5,-2,1,0,0,0,65,64,64,7,1,,,,,,,,,,,,,,,,,,,,,
,,,,,,,,,,,,,,,,,,,,,,,,,,,,,,,,,,,,,,,,,,,5b3937c57bc6be00010caf12,5fb5da77803f501d7b68b129,2020-11-18_20h38.33.652,Colour_Similarity_Experiment,2020.1.2,Linux x86_64,60,5fb5945709dec70f2d595766,,,,,,,,,,,,,,,,,,,,PF,,,,,,,,6,1.763,,,,,,,,,,,,,,,,,,,,,,,,,,,,1,90,44,1,0,0,response1disk,8,6,3,1,0,0,rectangle,6,3,1,0,0,3,4,"[293,322,133,179,87,316,258,78,106,286,147,45,79,124,141,235,273,67,236,229]",6,3,1,0,0,0,66,65,65,65,1,,,,,,,,,,,,,,,,,,,,,
,,,,,,,,,,,,,,,,,,,,,,,,,,,,,,,,,,,,,,,,,,,5b3937c57bc6be00010caf12,5fb5da77803f501d7b68b129,2020-11-18_20h38.33.652,Colour_Similarity_Experiment,2020.1.2,Linux x86_64,60,5fb5945709dec70f2d595766,,,,,,,,,,,,,,,,,,,,FF,,,,,,,,2,3.015,,,,,,,,,,,,,,,,,,,,,,,,,,,,3,-78,-27,1,0,0,response5disk,4,11,10,1,0,0,rectangle,80,42,1,0,0,6,6,"[293,322,133,179,87,316,258,78,106,286,147,45,79,124,141,235,273,67,236,229]",-1,-4,1,0,0,0,67,66,66,110,1,response1disk_3,rectangle,,,,,,,,,,,,,,,,,,,
,,,,,,,,,,,,,,,,,,,,,,,,,,,,,,,,,,,,,,,,,,,5b3937c57bc6be00010caf12,5fb5da77803f501d7b68b129,2020-11-18_20h38.33.652,Colour_Similarity_Experiment,2020.1.2,Linux x86_64,60,5fb5945709dec70f2d595766,,,,,,,,,,,,,,,,,,,,FF,,,,,,,,6,1.567,,,,,,,,,,,,,,,,,,,,,,,,,,,,6,66,37,1,0,0,response1disk,9,5,2,1,0,0,rectangle,5,2,1,0,0,6,7,"[293,322,133,179,87,316,258,78,106,286,147,45,79,124,141,235,273,67,236,229]",5,2,1,0,0,0,68,67,67,160,1,,,,,,,,,,,,,,,,,,,,,
,,,,,,,,,,,,,,,,,,,,,,,,,,,,,,,,,,,,,,,,,,,5b3937c57bc6be00010caf12,5fb5da77803f501d7b68b129,2020-11-18_20h38.33.652,Colour_Similarity_Experiment,2020.1.2,Linux x86_64,60,5fb5945709dec70f2d595766,,,,,,,,,,,,,,,,,,,,FF,,,,,,,,5,1.777,,,,,,,,,,,,,,,,,,,,,,,,,,,,3,77,-35,1,0,0,response3disk,5,8,-1,1,0,0,rectangle,8,-1,1,0,0,6,0,"[293,322,133,179,87,316,258,78,106,286,147,45,79,124,141,235,273,67,236,229]",8,-1,1,0,0,0,69,68,68,101,1,,,,,,,,,,,,,,,,,,,,,
,,,,,,,,,,,,,,,,,,,,,,,,,,,,,,,,,,,,,,,,,,,5b3937c57bc6be00010caf12,5fb5da77803f501d7b68b129,2020-11-18_20h38.33.652,Colour_Similarity_Experiment,2020.1.2,Linux x86_64,60,5fb5945709dec70f2d595766,,,,,,,,,,,,,,,,,,,,FF,,,,,,,,7,1.298,,,,,,,,,,,,,,,,,,,,,,,,,,,,1,24,101,1,0,0,response1disk,2,7,2,1,0,0,rectangle,7,2,1,0,0,6,4,"[293,322,133,179,87,316,258,78,106,286,147,45,79,124,141,235,273,67,236,229]",7,2,1,0,0,0,70,69,69,2,1,,,,,,,,,,,,,,,,,,,,,
,,,,,,,,,,,,,,,,,,,,,,,,,,,,,,,,,,,,,,,,,,,5b3937c57bc6be00010caf12,5fb5da77803f501d7b68b129,2020-11-18_20h38.33.652,Colour_Similarity_Experiment,2020.1.2,Linux x86_64,60,5fb5945709dec70f2d595766,,,,,,,,,,,,,,,,,,,,FF,,,,,,,,5,2.099,,,,,,,,,,,,,,,,,,,,,,,,,,,,8,106,-26,1,0,0,response3disk,7,1,-1,1,0,0,rectangle,1,-1,1,0,0,6,3,"[293,322,133,179,87,316,258,78,106,286,147,45,79,124,141,235,273,67,236,229]",1,-1,1,0,0,0,71,70,70,86,1,,,,,,,,,,,,,,,,,,,,,
,,,,,,,,,,,,,,,,,,,,,,,,,,,,,,,,,,,,,,,,,,,5b3937c57bc6be00010caf12,5fb5da77803f501d7b68b129,2020-11-18_20h38.33.652,Colour_Similarity_Experiment,2020.1.2,Linux x86_64,60,5fb5945709dec70f2d595766,,,,,,,,,,,,,,,,,,,,FF,,,,,,,,7,1.117,,,,,,,,,,,,,,,,,,,,,,,,,,,,7,29,83,1,0,0,response1disk,2,16,0,1,0,0,rectangle,16,0,1,0,0,6,0,"[293,322,133,179,87,316,258,78,106,286,147,45,79,124,141,235,273,67,236,229]",16,0,1,0,0,0,72,71,71,138,1,,,,,,,,,,,,,,,,,,,,,
,,,,,,,,,,,,,,,,,,,,,,,,,,,,,,,,,,,,,,,,,,,5b3937c57bc6be00010caf12,5fb5da77803f501d7b68b129,2020-11-18_20h38.33.652,Colour_Similarity_Experiment,2020.1.2,Linux x86_64,60,5fb5945709dec70f2d595766,,,,,,,,,,,,,,,,,,,,PF,,,,,,,,0,0.951,,,,,,,,,,,,,,,,,,,,,,,,,,,,2,-40,62,1,0,0,response7disk,2,-11,3,1,0,0,rectangle,-11,3,1,0,0,6,1,"[293,322,133,179,87,316,258,78,106,286,147,45,79,124,141,235,273,67,236,229]",-11,3,1,0,0,0,73,72,72,14,1,,,,,,,,,,,,,,,,,,,,,
,,,,,,,,,,,,,,,,,,,,,,,,,,,,,,,,,,,,,,,,,,,5b3937c57bc6be00010caf12,5fb5da77803f501d7b68b129,2020-11-18_20h38.33.652,Colour_Similarity_Experiment,2020.1.2,Linux x86_64,60,5fb5945709dec70f2d595766,,,,,,,,,,,,,,,,,,,,PF,,,,,,,,3,3.027,,,,,,,,,,,,,,,,,,,,,,,,,,,,7,-50,-75,1,0,0,response5disk,6,8,4,1,0,0,rectangle,8,4,1,0,0,6,2,"[293,322,133,179,87,316,258,78,106,286,147,45,79,124,141,235,273,67,236,229]",8,4,1,0,0,0,74,73,73,29,1,,,,,,,,,,,,,,,,,,,,,
,,,,,,,,,,,,,,,,,,,,,,,,,,,,,,,,,,,,,,,,,,,5b3937c57bc6be00010caf12,5fb5da77803f501d7b68b129,2020-11-18_20h38.33.652,Colour_Similarity_Experiment,2020.1.2,Linux x86_64,60,5fb5945709dec70f2d595766,,,,,,,,,,,,,,,,,,,,PF,,,,,,,,5,2.047,,,,,,,,,,,,,,,,,,,,,,,,,,,,2,90,-40,1,0,0,response3disk,1,-15,4,1,0,0,rectangle,-15,4,1,0,0,6,4,"[293,322,133,179,87,316,258,78,106,286,147,45,79,124,141,235,273,67,236,229]",-15,4,1,0,0,0,75,74,74,9,1,,,,,,,,,,,,,,,,,,,,,
,,,,,,,,,,,,,,,,,,,,,,,,,,,,,,,,,,,,,,,,,,,5b3937c57bc6be00010caf12,5fb5da77803f501d7b68b129,2020-11-18_20h38.33.652,Colour_Similarity_Experiment,2020.1.2,Linux x86_64,60,5fb5945709dec70f2d595766,,,,,,,,,,,,,,,,,,,,PF,,,,,,,,7,1.383,,,,,,,,,,,,,,,,,,,,,,,,,,,,2,27,81,1,0,0,response1disk,4,3,1,1,0,0,rectangle,3,1,1,0,0,6,0,"[293,322,133,179,87,316,258,78,106,286,147,45,79,124,141,235,273,67,236,229]",3,1,1,0,0,0,76,75,75,127,1,,,,,,,,,,,,,,,,,,,,,
,,,,,,,,,,,,,,,,,,,,,,,,,,,,,,,,,,,,,,,,,,,5b3937c57bc6be00010caf12,5fb5da77803f501d7b68b129,2020-11-18_20h38.33.652,Colour_Similarity_Experiment,2020.1.2,Linux x86_64,60,5fb5945709dec70f2d595766,,,,,,,,,,,,,,,,,,,,FF,,,,,,,,2,2.005,,,,,,,,,,,,,,,,,,,,,,,,,,,,6,-72,-44,1,0,0,response5disk,5,-16,0,1,0,0,rectangle,-16,0,1,0,0,6,5,"[293,322,133,179,87,316,258,78,106,286,147,45,79,124,141,235,273,67,236,229]",-16,0,1,0,0,0,77,76,76,126,1,,,,,,,,,,,,,,,,,,,,,
,,,,,,,,,,,,,,,,,,,,,,,,,,,,,,,,,,,,,,,,,,,5b3937c57bc6be00010caf12,5fb5da77803f501d7b68b129,2020-11-18_20h38.33.652,Colour_Similarity_Experiment,2020.1.2,Linux x86_64,60,5fb5945709dec70f2d595766,,,,,,,,,,,,,,,,,,,,FF,,,,,,,,1,3.534,,,,,,,,,,,,,,,,,,,,,,,,,,,,3,-74,36,1,0,0,response7disk,3,1,-1,1,0,0,rectangle,-81,-33,1,0,0,6,2,"[293,322,133,179,87,316,258,78,106,286,147,45,79,124,141,235,273,67,236,229]",2,7,1,0,0,0,78,77,77,68,1,response5disk_3,rectangle,,,,,,,,,,,,,,,,,,,
,,,,,,,,,,,,,,,,,,,,,,,,,,,,,,,,,,,,,,,,,,,5b3937c57bc6be00010caf12,5fb5da77803f501d7b68b129,2020-11-18_20h38.33.652,Colour_Similarity_Experiment,2020.1.2,Linux x86_64,60,5fb5945709dec70f2d595766,,,,,,,,,,,,,,,,,,,,FF,,,,,,,,7,1.267,,,,,,,,,,,,,,,,,,,,,,,,,,,,5,18,70,1,0,0,response1disk,2,-3,4,1,0,0,rectangle,-69,39,1,0,0,1,1,"[293,322,133,179,87,316,258,78,106,286,147,45,79,124,141,235,273,67,236,229]",-1,1,1,0,0,0,79,78,78,55,1,response7disk_3,rectangle,,,,,,,,,,,,,,,,,,,
,,,,,,,,,,,,,,,,,,,,,,,,,,,,,,,,,,,,,,,,,,,5b3937c57bc6be00010caf12,5fb5da77803f501d7b68b129,2020-11-18_20h38.33.652,Colour_Similarity_Experiment,2020.1.2,Linux x86_64,60,5fb5945709dec70f2d595766,,,,,,,,,,,,,,,,,,,,PF,,,,,,,,7,1.335,,,,,,,,,,,,,,,,,,,,,,,,,,,,3,37,81,1,0,0,response1disk,9,-12,-3,1,0,0,rectangle,-12,-3,1,0,0,1,2,"[293,322,133,179,87,316,258,78,106,286,147,45,79,124,141,235,273,67,236,229]",-12,-3,1,0,0,0,80,79,79,79,1,,,,,,,,,,,,,,,,,,,,,
,,,,,,,,,,,,,,,,,,,,,,,,,,,,,,,,,,,,,,,,,,,5b3937c57bc6be00010caf12,5fb5da77803f501d7b68b129,2020-11-18_20h38.33.652,Colour_Similarity_Experiment,2020.1.2,Linux x86_64,60,5fb5945709dec70f2d595766,,,,,,,,,,,,,,,,,,,,PF,,,,,,,,0,1.437,,,,,,,,,,,,,,,,,,,,,,,,,,,,6,-52,96,1,0,0,response7disk,6,3,5,1,0,0,rectangle,3,5,1,0,0,1,1,"[293,322,133,179,87,316,258,78,106,286,147,45,79,124,141,235,273,67,236,229]",3,5,1,0,0,0,81,80,80,0,1,,,,,,,,,,,,,,,,,,,,,
,,,,,,,,,,,,,,,,,,,,,,,,,,,,,,,,,,,,,,,,,,,5b3937c57bc6be00010caf12,5fb5da77803f501d7b68b129,2020-11-18_20h38.33.652,Colour_Similarity_Experiment,2020.1.2,Linux x86_64,60,5fb5945709dec70f2d595766,,,,,,,,,,,,,,,,,,,,FF,,,,,,,,5,2.419,,,,,,,,,,,,,,,,,,,,,,,,,,,,7,81,-39,1,0,0,response3disk,5,15,-6,1,0,0,rectangle,15,-6,1,0,0,1,5,"[293,322,133,179,87,316,258,78,106,286,147,45,79,124,141,235,273,67,236,229]",15,-6,1,0,0,0,82,81,81,156,1,,,,,,,,,,,,,,,,,,,,,
,,,,,,,,,,,,,,,,,,,,,,,,,,,,,,,,,,,,,,,,,,,5b3937c57bc6be00010caf12,5fb5da77803f501d7b68b129,2020-11-18_20h38.33.652,Colour_Similarity_Experiment,2020.1.2,Linux x86_64,60,5fb5945709dec70f2d595766,,,,,,,,,,,,,,,,,,,,FF,,,,,,,,7,1.414,,,,,,,,,,,,,,,,,,,,,,,,,,,,3,38,70,1,0,0,response1disk,1,-5,2,1,0,0,rectangle,-5,2,1,0,0,1,3,"[293,322,133,179,87,316,258,78,106,286,147,45,79,124,141,235,273,67,236,229]",-5,2,1,0,0,0,83,82,82,125,1,,,,,,,,,,,,,,,,,,,,,
,,,,,,,,,,,,,,,,,,,,,,,,,,,,,,,,,,,,,,,,,,,5b3937c57bc6be00010caf12,5fb5da77803f501d7b68b129,2020-11-18_20h38.33.652,Colour_Similarity_Experiment,2020.1.2,Linux x86_64,60,5fb5945709dec70f2d595766,,,,,,,,,,,,,,,,,,,,FF,,,,,,,,7,2.301,,,,,,,,,,,,,,,,,,,,,,,,,,,,5,38,84,1,0,0,response1disk,8,3,-2,1,0,0,rectangle,3,-2,1,0,0,1,2,"[293,322,133,179,87,316,258,78,106,286,147,45,79,124,141,235,273,67,236,229]",3,-2,1,0,0,0,84,83,83,16,1,,,,,,,,,,,,,,,,,,,,,
,,,,,,,,,,,,,,,,,,,,,,,,,,,,,,,,,,,,,,,,,,,5b3937c57bc6be00010caf12,5fb5da77803f501d7b68b129,2020-11-18_20h38.33.652,Colour_Similarity_Experiment,2020.1.2,Linux x86_64,60,5fb5945709dec70f2d595766,,,,,,,,,,,,,,,,,,,,PF,,,,,,,,7,1.582,,,,,,,,,,,,,,,,,,,,,,,,,,,,8,27,99,1,0,0,response1disk,3,-6,0,1,0,0,rectangle,-6,0,1,0,0,1,6,"[293,322,133,179,87,316,258,78,106,286,147,45,79,124,141,235,273,67,236,229]",-6,0,1,0,0,0,85,84,84,71,1,,,,,,,,,,,,,,,,,,,,,
,,,,,,,,,,,,,,,,,,,,,,,,,,,,,,,,,,,,,,,,,,,5b3937c57bc6be00010caf12,5fb5da77803f501d7b68b129,2020-11-18_20h38.33.652,Colour_Similarity_Experiment,2020.1.2,Linux x86_64,60,5fb5945709dec70f2d595766,,,,,,,,,,,,,,,,,,,,FF,,,,,,,,7,1.431,,,,,,,,,,,,,,,,,,,,,,,,,,,,2,27,85,1,0,0,response1disk,7,3,-4,1,0,0,rectangle,3,-4,1,0,0,1,1,"[293,322,133,179,87,316,258,78,106,286,147,45,79,124,141,235,273,67,236,229]",3,-4,1,0,0,0,86,85,85,63,1,,,,,,,,,,,,,,,,,,,,,
,,,,,,,,,,,,,,,,,,,,,,,,,,,,,,,,,,,,,,,,,,,5b3937c57bc6be00010caf12,5fb5da77803f501d7b68b129,2020-11-18_20h38.33.652,Colour_Similarity_Experiment,2020.1.2,Linux x86_64,60,5fb5945709dec70f2d595766,,,,,,,,,,,,,,,,,,,,FF,,,,,,,,3,1.899,,,,,,,,,,,,,,,,,,,,,,,,,,,,4,-53,-78,1,0,0,response5disk,3,9,1,1,0,0,rectangle,88,37,1,0,0,6,6,"[293,322,133,179,87,316,258,78,106,286,147,45,79,124,141,235,273,67,236,229]",1,-4,1,0,0,0,87,86,86,77,1,response1disk_3,rectangle,,,,,,,,,,,,,,,,,,,
,,,,,,,,,,,,,,,,,,,,,,,,,,,,,,,,,,,,,,,,,,,5b3937c57bc6be00010caf12,5fb5da77803f501d7b68b129,2020-11-18_20h38.33.652,Colour_Similarity_Experiment,2020.1.2,Linux x86_64,60,5fb5945709dec70f2d595766,,,,,,,,,,,,,,,,,,,,PF,,,,,,,,5,2.354,,,,,,,,,,,,,,,,,,,,,,,,,,,,3,69,-39,1,0,0,response3disk,5,0,2,1,0,0,rectangle,0,2,1,0,0,6,2,"[293,322,133,179,87,316,258,78,106,286,147,45,79,124,141,235,273,67,236,229]",0,2,1,0,0,0,88,87,87,66,1,,,,,,,,,,,,,,,,,,,,,
,,,,,,,,,,,,,,,,,,,,,,,,,,,,,,,,,,,,,,,,,,,5b3937c57bc6be00010caf12,5fb5da77803f501d7b68b129,2020-11-18_20h38.33.652,Colour_Similarity_Experiment,2020.1.2,Linux x86_64,60,5fb5945709dec70f2d595766,,,,,,,,,,,,,,,,,,,,PF,,,,,,,,7,1.201,,,,,,,,,,,,,,,,,,,,,,,,,,,,8,26,81,1,0,0,response1disk,2,-6,5,1,0,0,rectangle,-6,5,1,0,0,6,7,"[293,322,133,179,87,316,258,78,106,286,147,45,79,124,141,235,273,67,236,229]",-6,5,1,0,0,0,89,88,88,83,1,,,,,,,,,,,,,,,,,,,,,
,,,,,,,,,,,,,,,,,,,,,,,,,,,,,,,,,,,,,,,,,,,5b3937c57bc6be00010caf12,5fb5da77803f501d7b68b129,2020-11-18_20h38.33.652,Colour_Similarity_Experiment,2020.1.2,Linux x86_64,60,5fb5945709dec70f2d595766,,,,,,,,,,,,,,,,,,,,PF,,,,,,,,4,1.561,,,,,,,,,,,,,,,,,,,,,,,,,,,,8,31,-80,1,0,0,response3disk,6,-6,0,1,0,0,rectangle,-6,0,1,0,0,6,6,"[293,322,133,179,87,316,258,78,106,286,147,45,79,124,141,235,273,67,236,229]",-6,0,1,0,0,0,90,89,89,161,1,,,,,,,,,,,,,,,,,,,,,
,,,,,,,,,,,,,,,,,,,,,,,,,,,,,,,,,,,,,,,,,,,5b3937c57bc6be00010caf12,5fb5da77803f501d7b68b129,2020-11-18_20h38.33.652,Colour_Similarity_Experiment,2020.1.2,Linux x86_64,60,5fb5945709dec70f2d595766,,,,,,,,,,,,,,,,,,,,PF,,,,,,,,7,1.277,,,,,,,,,,,,,,,,,,,,,,,,,,,,6,24,82,1,0,0,response1disk,3,-2,-1,1,0,0,rectangle,-2,-1,1,0,0,6,5,"[293,322,133,179,87,316,258,78,106,286,147,45,79,124,141,235,273,67,236,229]",-2,-1,1,0,0,0,91,90,90,26,1,,,,,,,,,,,,,,,,,,,,,
,,,,,,,,,,,,,,,,,,,,,,,,,,,,,,,,,,,,,,,,,,,5b3937c57bc6be00010caf12,5fb5da77803f501d7b68b129,2020-11-18_20h38.33.652,Colour_Similarity_Experiment,2020.1.2,Linux x86_64,60,5fb5945709dec70f2d595766,,,,,,,,,,,,,,,,,,,,PF,,,,,,,,5,4.324,,,,,,,,,,,,,,,,,,,,,,,,,,,,5,86,-34,1,0,0,response3disk,3,8,5,1,0,0,rectangle,8,5,1,0,0,6,2,"[293,322,133,179,87,316,258,78,106,286,147,45,79,124,141,235,273,67,236,229]",8,5,1,0,0,0,92,91,91,109,1,,,,,,,,,,,,,,,,,,,,,
,,,,,,,,,,,,,,,,,,,,,,,,,,,,,,,,,,,,,,,,,,,5b3937c57bc6be00010caf12,5fb5da77803f501d7b68b129,2020-11-18_20h38.33.652,Colour_Similarity_Experiment,2020.1.2,Linux x86_64,60,5fb5945709dec70f2d595766,,,,,,,,,,,,,,,,,,,,FF,,,,,,,,6,2.078,,,,,,,,,,,,,,,,,,,,,,,,,,,,3,69,47,1,0,0,response1disk,2,19,2,1,0,0,rectangle,19,2,1,0,0,6,2,"[293,322,133,179,87,316,258,78,106,286,147,45,79,124,141,235,273,67,236,229]",19,2,1,0,0,0,93,92,92,93,1,,,,,,,,,,,,,,,,,,,,,
,,,,,,,,,,,,,,,,,,,,,,,,,,,,,,,,,,,,,,,,,,,5b3937c57bc6be00010caf12,5fb5da77803f501d7b68b129,2020-11-18_20h38.33.652,Colour_Similarity_Experiment,2020.1.2,Linux x86_64,60,5fb5945709dec70f2d595766,,,,,,,,,,,,,,,,,,,,PF,,,,,,,,3,1.652,,,,,,,,,,,,,,,,,,,,,,,,,,,,5,-49,-59,1,0,0,response5disk,6,-2,-7,1,0,0,rectangle,-2,-7,1,0,0,6,2,"[293,322,133,179,87,316,258,78,106,286,147,45,79,124,141,235,273,67,236,229]",-2,-7,1,0,0,0,94,93,93,103,1,,,,,,,,,,,,,,,,,,,,,
,,,,,,,,,,,,,,,,,,,,,,,,,,,,,,,,,,,,,,,,,,,5b3937c57bc6be00010caf12,5fb5da77803f501d7b68b129,2020-11-18_20h38.33.652,Colour_Similarity_Experiment,2020.1.2,Linux x86_64,60,5fb5945709dec70f2d595766,,,,,,,,,,,,,,,,,,,,FF,,,,,,,,7,1.334,,,,,,,,,,,,,,,,,,,,,,,,,,,,2,21,74,1,0,0,response1disk,6,-1,6,1,0,0,rectangle,-1,6,1,0,0,6,0,"[293,322,133,179,87,316,258,78,106,286,147,45,79,124,141,235,273,67,236,229]",-1,6,1,0,0,0,95,94,94,40,1,,,,,,,,,,,,,,,,,,,,,
,,,,,,,,,,,,,,,,,,,,,,,,,,,,,,,,,,,,,,,,,,,5b3937c57bc6be00010caf12,5fb5da77803f501d7b68b129,2020-11-18_20h38.33.652,Colour_Similarity_Experiment,2020.1.2,Linux x86_64,60,5fb5945709dec70f2d595766,,,,,,,,,,,,,,,,,,,,PF,,,,,,,,7,1.319,,,,,,,,,,,,,,,,,,,,,,,,,,,,2,23,85,1,0,0,response1disk,6,-4,-7,1,0,0,rectangle,-4,-7,1,0,0,6,5,"[293,322,133,179,87,316,258,78,106,286,147,45,79,124,141,235,273,67,236,229]",-4,-7,1,0,0,0,96,95,95,113,1,,,,,,,,,,,,,,,,,,,,,
,,,,,,,,,,,,,,,,,,,,,,,,,,,,,,,,,,,,,,,,,,,5b3937c57bc6be00010caf12,5fb5da77803f501d7b68b129,2020-11-18_20h38.33.652,Colour_Similarity_Experiment,2020.1.2,Linux x86_64,60,5fb5945709dec70f2d595766,,,,,,,,,,,,,,,,,,,,PF,,,,,,,,6,2.234,,,,,,,,,,,,,,,,,,,,,,,,,,,,1,85,22,1,0,0,response1disk,2,6,2,1,0,0,rectangle,6,2,1,0,0,6,0,"[293,322,133,179,87,316,258,78,106,286,147,45,79,124,141,235,273,67,236,229]",6,2,1,0,0,0,97,96,96,24,1,,,,,,,,,,,,,,,,,,,,,
,,,,,,,,,,,,,,,,,,,,,,,,,,,,,,,,,,,,,,,,,,,5b3937c57bc6be00010caf12,5fb5da77803f501d7b68b129,2020-11-18_20h38.33.652,Colour_Similarity_Experiment,2020.1.2,Linux x86_64,60,5fb5945709dec70f2d595766,,,,,,,,,,,,,,,,,,,,FF,,,,,,,,0,1.408,,,,,,,,,,,,,,,,,,,,,,,,,,,,8,-37,63,1,0,0,response7disk,8,11,4,1,0,0,rectangle,11,4,1,0,0,6,2,"[293,322,133,179,87,316,258,78,106,286,147,45,79,124,141,235,273,67,236,229]",11,4,1,0,0,0,98,97,97,48,1,,,,,,,,,,,,,,,,,,,,,
,,,,,,,,,,,,,,,,,,,,,,,,,,,,,,,,,,,,,,,,,,,5b3937c57bc6be00010caf12,5fb5da77803f501d7b68b129,2020-11-18_20h38.33.652,Colour_Similarity_Experiment,2020.1.2,Linux x86_64,60,5fb5945709dec70f2d595766,,,,,,,,,,,,,,,,,,,,FF,,,,,,,,7,1.158,,,,,,,,,,,,,,,,,,,,,,,,,,,,3,21,66,1,0,0,response1disk,9,7,6,1,0,0,rectangle,7,6,1,0,0,6,5,"[293,322,133,179,87,316,258,78,106,286,147,45,79,124,141,235,273,67,236,229]",7,6,1,0,0,0,99,98,98,143,1,,,,,,,,,,,,,,,,,,,,,
,,,,,,,,,,,,,,,,,,,,,,,,,,,,,,,,,,,,,,,,,,,5b3937c57bc6be00010caf12,5fb5da77803f501d7b68b129,2020-11-18_20h38.33.652,Colour_Similarity_Experiment,2020.1.2,Linux x86_64,60,5fb5945709dec70f2d595766,,,,,,,,,,,,,,,,,,,,FF,,,,,,,,4,2.113,,,,,,,,,,,,,,,,,,,,,,,,,,,,7,39,-70,1,0,0,response3disk,6,2,2,1,0,0,rectangle,2,2,1,0,0,6,3,"[293,322,133,179,87,316,258,78,106,286,147,45,79,124,141,235,273,67,236,229]",2,2,1,0,0,0,100,99,99,31,1,,,,,,,,,,,,,,,,,,,,,
,,,,,,,,,,,,,,,,,,,,,,,,,,,,,,,,,,,,,,,,,,,5b3937c57bc6be00010caf12,5fb5da77803f501d7b68b129,2020-11-18_20h38.33.652,Colour_Similarity_Experiment,2020.1.2,Linux x86_64,60,5fb5945709dec70f2d595766,,,,,,,,,,,,,,,,,,,,FF,,,,,,,,7,2.107,,,,,,,,,,,,,,,,,,,,,,,,,,,,6,22,78,1,0,0,response1disk,2,11,8,1,0,0,rectangle,11,8,1,0,0,6,4,"[293,322,133,179,87,316,258,78,106,286,147,45,79,124,141,235,273,67,236,229]",11,8,1,0,0,0,101,100,100,112,1,,,,,,,,,,,,,,,,,,,,,
,,,,,,,,,,,,,,,,,,,,,,,,,,,,,,,,,,,,,,,,,,,5b3937c57bc6be00010caf12,5fb5da77803f501d7b68b129,2020-11-18_20h38.33.652,Colour_Similarity_Experiment,2020.1.2,Linux x86_64,60,5fb5945709dec70f2d595766,,,,,,,,,,,,,,,,,,,,FF,,,,,,,,7,1.371,,,,,,,,,,,,,,,,,,,,,,,,,,,,1,23,66,1,0,0,response1disk,3,11,5,1,0,0,rectangle,11,5,1,0,0,6,0,"[293,322,133,179,87,316,258,78,106,286,147,45,79,124,141,235,273,67,236,229]",11,5,1,0,0,0,102,101,101,99,1,,,,,,,,,,,,,,,,,,,,,
,,,,,,,,,,,,,,,,,,,,,,,,,,,,,,,,,,,,,,,,,,,5b3937c57bc6be00010caf12,5fb5da77803f501d7b68b129,2020-11-18_20h38.33.652,Colour_Similarity_Experiment,2020.1.2,Linux x86_64,60,5fb5945709dec70f2d595766,,,,,,,,,,,,,,,,,,,,FF,,,,,,,,7,1.494,,,,,,,,,,,,,,,,,,,,,,,,,,,,9,27,65,1,0,0,response1disk,3,10,2,1,0,0,rectangle,10,2,1,0,0,6,1,"[293,322,133,179,87,316,258,78,106,286,147,45,79,124,141,235,273,67,236,229]",10,2,1,0,0,0,103,102,102,141,1,,,,,,,,,,,,,,,,,,,,,
,,,,,,,,,,,,,,,,,,,,,,,,,,,,,,,,,,,,,,,,,,,5b3937c57bc6be00010caf12,5fb5da77803f501d7b68b129,2020-11-18_20h38.33.652,Colour_Similarity_Experiment,2020.1.2,Linux x86_64,60,5fb5945709dec70f2d595766,,,,,,,,,,,,,,,,,,,,FF,,,,,,,,7,1.522,,,,,,,,,,,,,,,,,,,,,,,,,,,,9,25,73,1,0,0,response1disk,4,3,6,1,0,0,rectangle,3,6,1,0,0,6,5,"[293,322,133,179,87,316,258,78,106,286,147,45,79,124,141,235,273,67,236,229]",3,6,1,0,0,0,104,103,103,60,1,,,,,,,,,,,,,,,,,,,,,
,,,,,,,,,,,,,,,,,,,,,,,,,,,,,,,,,,,,,,,,,,,5b3937c57bc6be00010caf12,5fb5da77803f501d7b68b129,2020-11-18_20h38.33.652,Colour_Similarity_Experiment,2020.1.2,Linux x86_64,60,5fb5945709dec70f2d595766,,,,,,,,,,,,,,,,,,,,FF,,,,,,,,7,2.019,,,,,,,,,,,,,,,,,,,,,,,,,,,,9,34,71,1,0,0,response1disk,2,18,8,1,0,0,rectangle,18,8,1,0,0,6,2,"[293,322,133,179,87,316,258,78,106,286,147,45,79,124,141,235,273,67,236,229]",18,8,1,0,0,0,105,104,104,11,1,,,,,,,,,,,,,,,,,,,,,
,,,,,,,,,,,,,,,,,,,,,,,,,,,,,,,,,,,,,,,,,,,5b3937c57bc6be00010caf12,5fb5da77803f501d7b68b129,2020-11-18_20h38.33.652,Colour_Similarity_Experiment,2020.1.2,Linux x86_64,60,5fb5945709dec70f2d595766,,,,,,,,,,,,,,,,,,,,PF,,,,,,,,0,1.381,,,,,,,,,,,,,,,,,,,,,,,,,,,,9,-33,66,1,0,0,response7disk,9,-4,4,1,0,0,rectangle,-23,-64,1,0,0,3,3,"[293,322,133,179,87,316,258,78,106,286,147,45,79,124,141,235,273,67,236,229]",8,2,1,0,0,0,106,105,105,106,1,response5disk_3,rectangle,,,,,,,,,,,,,,,,,,,
,,,,,,,,,,,,,,,,,,,,,,,,,,,,,,,,,,,,,,,,,,,5b3937c57bc6be00010caf12,5fb5da77803f501d7b68b129,2020-11-18_20h38.33.652,Colour_Similarity_Experiment,2020.1.2,Linux x86_64,60,5fb5945709dec70f2d595766,,,,,,,,,,,,,,,,,,,,PF,,,,,,,,6,2.55,,,,,,,,,,,,,,,,,,,,,,,,,,,,3,75,26,1,0,0,response1disk,6,14,-2,1,0,0,rectangle,14,-2,1,0,0,3,1,"[293,322,133,179,87,316,258,78,106,286,147,45,79,124,141,235,273,67,236,229]",14,-2,1,0,0,0,107,106,106,47,1,,,,,,,,,,,,,,,,,,,,,
,,,,,,,,,,,,,,,,,,,,,,,,,,,,,,,,,,,,,,,,,,,5b3937c57bc6be00010caf12,5fb5da77803f501d7b68b129,2020-11-18_20h38.33.652,Colour_Similarity_Experiment,2020.1.2,Linux x86_64,60,5fb5945709dec70f2d595766,,,,,,,,,,,,,,,,,,,,PF,,,,,,,,7,1.218,,,,,,,,,,,,,,,,,,,,,,,,,,,,6,34,87,1,0,0,response1disk,1,-11,-1,1,0,0,rectangle,-11,-1,1,0,0,3,5,"[293,322,133,179,87,316,258,78,106,286,147,45,79,124,141,235,273,67,236,229]",-11,-1,1,0,0,0,108,107,107,46,1,,,,,,,,,,,,,,,,,,,,,
,,,,,,,,,,,,,,,,,,,,,,,,,,,,,,,,,,,,,,,,,,,5b3937c57bc6be00010caf12,5fb5da77803f501d7b68b129,2020-11-18_20h38.33.652,Colour_Similarity_Experiment,2020.1.2,Linux x86_64,60,5fb5945709dec70f2d595766,,,,,,,,,,,,,,,,,,,,PF,,,,,,,,7,1.267,,,,,,,,,,,,,,,,,,,,,,,,,,,,5,34,89,1,0,0,response1disk,1,-21,9,1,0,0,rectangle,-21,9,1,0,0,3,0,"[293,322,133,179,87,316,258,78,106,286,147,45,79,124,141,235,273,67,236,229]",-21,9,1,0,0,0,109,108,108,159,1,,,,,,,,,,,,,,,,,,,,,
,,,,,,,,,,,,,,,,,,,,,,,,,,,,,,,,,,,,,,,,,,,5b3937c57bc6be00010caf12,5fb5da77803f501d7b68b129,2020-11-18_20h38.33.652,Colour_Similarity_Experiment,2020.1.2,Linux x86_64,60,5fb5945709dec70f2d595766,,,,,,,,,,,,,,,,,,,,FF,,,,,,,,7,1.951,,,,,,,,,,,,,,,,,,,,,,,,,,,,4,33,85,1,0,0,response1disk,8,5,8,1,0,0,rectangle,5,8,1,0,0,3,3,"[293,322,133,179,87,316,258,78,106,286,147,45,79,124,141,235,273,67,236,229]",5,8,1,0,0,0,110,109,109,35,1,,,,,,,,,,,,,,,,,,,,,
,,,,,,,,,,,,,,,,,,,,,,,,,,,,,,,,,,,,,,,,,,,5b3937c57bc6be00010caf12,5fb5da77803f501d7b68b129,2020-11-18_20h38.33.652,Colour_Similarity_Experiment,2020.1.2,Linux x86_64,60,5fb5945709dec70f2d595766,,,,,,,,,,,,,,,,,,,,FF,,,,,,,,4,2.872,,,,,,,,,,,,,,,,,,,,,,,,,,,,6,35,-78,1,0,0,response3disk,7,-5,2,1,0,0,rectangle,-5,2,1,0,0,3,7,"[293,322,133,179,87,316,258,78,106,286,147,45,79,124,141,235,273,67,236,229]",-5,2,1,0,0,0,111,110,110,18,1,,,,,,,,,,,,,,,,,,,,,
,,,,,,,,,,,,,,,,,,,,,,,,,,,,,,,,,,,,,,,,,,,5b3937c57bc6be00010caf12,5fb5da77803f501d7b68b129,2020-11-18_20h38.33.652,Colour_Similarity_Experiment,2020.1.2,Linux x86_64,60,5fb5945709dec70f2d595766,,,,,,,,,,,,,,,,,,,,PF,,,,,,,,7,1.392,,,,,,,,,,,,,,,,,,,,,,,,,,,,7,41,73,1,0,0,response1disk,3,17,-1,1,0,0,rectangle,17,-1,1,0,0,3,7,"[293,322,133,179,87,316,258,78,106,286,147,45,79,124,141,235,273,67,236,229]",17,-1,1,0,0,0,112,111,111,81,1,,,,,,,,,,,,,,,,,,,,,
,,,,,,,,,,,,,,,,,,,,,,,,,,,,,,,,,,,,,,,,,,,5b3937c57bc6be00010caf12,5fb5da77803f501d7b68b129,2020-11-18_20h38.33.652,Colour_Similarity_Experiment,2020.1.2,Linux x86_64,60,5fb5945709dec70f2d595766,,,,,,,,,,,,,,,,,,,,FF,,,,,,,,7,2.552,,,,,,,,,,,,,,,,,,,,,,,,,,,,3,27,69,1,0,0,response1disk,7,7,7,1,0,0,rectangle,7,7,1,0,0,3,7,"[293,322,133,179,87,316,258,78,106,286,147,45,79,124,141,235,273,67,236,229]",7,7,1,0,0,0,113,112,112,118,1,,,,,,,,,,,,,,,,,,,,,
,,,,,,,,,,,,,,,,,,,,,,,,,,,,,,,,,,,,,,,,,,,5b3937c57bc6be00010caf12,5fb5da77803f501d7b68b129,2020-11-18_20h38.33.652,Colour_Similarity_Experiment,2020.1.2,Linux x86_64,60,5fb5945709dec70f2d595766,,,,,,,,,,,,,,,,,,,,PF,,,,,,,,3,2.142,,,,,,,,,,,,,,,,,,,,,,,,,,,,2,-26,-88,1,0,0,response5disk,3,1,8,1,0,0,rectangle,1,8,1,0,0,3,2,"[293,322,133,179,87,316,258,78,106,286,147,45,79,124,141,235,273,67,236,229]",1,8,1,0,0,0,114,113,113,69,1,,,,,,,,,,,,,,,,,,,,,
,,,,,,,,,,,,,,,,,,,,,,,,,,,,,,,,,,,,,,,,,,,5b3937c57bc6be00010caf12,5fb5da77803f501d7b68b129,2020-11-18_20h38.33.652,Colour_Similarity_Experiment,2020.1.2,Linux x86_64,60,5fb5945709dec70f2d595766,,,,,,,,,,,,,,,,,,,,PF,,,,,,,,6,2.217,,,,,,,,,,,,,,,,,,,,,,,,,,,,7,51,38,1,0,0,response1disk,9,10,4,1,0,0,rectangle,10,4,1,0,0,3,2,"[293,322,133,179,87,316,258,78,106,286,147,45,79,124,141,235,273,67,236,229]",10,4,1,0,0,0,115,114,114,10,1,,,,,,,,,,,,,,,,,,,,,
,,,,,,,,,,,,,,,,,,,,,,,,,,,,,,,,,,,,,,,,,,,5b3937c57bc6be00010caf12,5fb5da77803f501d7b68b129,2020-11-18_20h38.33.652,Colour_Similarity_Experiment,2020.1.2,Linux x86_64,60,5fb5945709dec70f2d595766,,,,,,,,,,,,,,,,,,,,FF,,,,,,,,7,1.284,,,,,,,,,,,,,,,,,,,,,,,,,,,,1,31,76,1,0,0,response1disk,4,2,3,1,0,0,rectangle,2,3,1,0,0,3,4,"[293,322,133,179,87,316,258,78,106,286,147,45,79,124,141,235,273,67,236,229]",2,3,1,0,0,0,116,115,115,135,1,,,,,,,,,,,,,,,,,,,,,
,,,,,,,,,,,,,,,,,,,,,,,,,,,,,,,,,,,,,,,,,,,5b3937c57bc6be00010caf12,5fb5da77803f501d7b68b129,2020-11-18_20h38.33.652,Colour_Similarity_Experiment,2020.1.2,Linux x86_64,60,5fb5945709dec70f2d595766,,,,,,,,,,,,,,,,,,,,FF,,,,,,,,7,1.449,,,,,,,,,,,,,,,,,,,,,,,,,,,,5,24,65,1,0,0,response1disk,3,-1,1,1,0,0,rectangle,-1,1,1,0,0,3,6,"[293,322,133,179,87,316,258,78,106,286,147,45,79,124,141,235,273,67,236,229]",-1,1,1,0,0,0,117,116,116,25,1,,,,,,,,,,,,,,,,,,,,,
,,,,,,,,,,,,,,,,,,,,,,,,,,,,,,,,,,,,,,,,,,,5b3937c57bc6be00010caf12,5fb5da77803f501d7b68b129,2020-11-18_20h38.33.652,Colour_Similarity_Experiment,2020.1.2,Linux x86_64,60,5fb5945709dec70f2d595766,,,,,,,,,,,,,,,,,,,,PF,,,,,,,,5,1.483,,,,,,,,,,,,,,,,,,,,,,,,,,,,7,65,-39,1,0,0,response3disk,8,0,-1,1,0,0,rectangle,0,-1,1,0,0,3,3,"[293,322,133,179,87,316,258,78,106,286,147,45,79,124,141,235,273,67,236,229]",0,-1,1,0,0,0,118,117,117,140,1,,,,,,,,,,,,,,,,,,,,,
,,,,,,,,,,,,,,,,,,,,,,,,,,,,,,,,,,,,,,,,,,,5b3937c57bc6be00010caf12,5fb5da77803f501d7b68b129,2020-11-18_20h38.33.652,Colour_Similarity_Experiment,2020.1.2,Linux x86_64,60,5fb5945709dec70f2d595766,,,,,,,,,,,,,,,,,,,,FF,,,,,,,,7,1.296,,,,,,,,,,,,,,,,,,,,,,,,,,,,6,32,68,1,0,0,response1disk,4,3,-1,1,0,0,rectangle,3,-1,1,0,0,3,7,"[293,322,133,179,87,316,258,78,106,286,147,45,79,124,141,235,273,67,236,229]",3,-1,1,0,0,0,119,118,118,56,1,,,,,,,,,,,,,,,,,,,,,
,,,,,,,,,,,,,,,,,,,,,,,,,,,,,,,,,,,,,,,,,,,5b3937c57bc6be00010caf12,5fb5da77803f501d7b68b129,2020-11-18_20h38.33.652,Colour_Similarity_Experiment,2020.1.2,Linux x86_64,60,5fb5945709dec70f2d595766,,,,,,,,,,,,,,,,,,,,PF,,,,,,,,6,2.282,,,,,,,,,,,,,,,,,,,,,,,,,,,,3,73,25,1,0,0,response1disk,2,11,-8,1,0,0,rectangle,11,-8,1,0,0,3,2,"[293,322,133,179,87,316,258,78,106,286,147,45,79,124,141,235,273,67,236,229]",11,-8,1,0,0,0,120,119,119,36,1,,,,,,,,,,,,,,,,,,,,,
,,,,,,,,,,,,,,,,,,,,,,,,,,,,,,,,,,,,,,,,,,,5b3937c57bc6be00010caf12,5fb5da77803f501d7b68b129,2020-11-18_20h38.33.652,Colour_Similarity_Experiment,2020.1.2,Linux x86_64,60,5fb5945709dec70f2d595766,,,,,,,,,,,,,,,,,,,,FF,,,,,,,,3,1.909,,,,,,,,,,,,,,,,,,,,,,,,,,,,8,-40,-98,1,0,0,response5disk,9,-7,-6,1,0,0,rectangle,-7,-6,1,0,0,3,5,"[293,322,133,179,87,316,258,78,106,286,147,45,79,124,141,235,273,67,236,229]",-7,-6,1,0,0,0,121,120,120,105,1,,,,,,,,,,,,,,,,,,,,,
,,,,,,,,,,,,,,,,,,,,,,,,,,,,,,,,,,,,,,,,,,,5b3937c57bc6be00010caf12,5fb5da77803f501d7b68b129,2020-11-18_20h38.33.652,Colour_Similarity_Experiment,2020.1.2,Linux x86_64,60,5fb5945709dec70f2d595766,,,,,,,,,,,,,,,,,,,,FF,,,,,,,,2,1.764,,,,,,,,,,,,,,,,,,,,,,,,,,,,5,-67,-43,1,0,0,response5disk,6,1,-2,1,0,0,rectangle,1,-2,1,0,0,3,3,"[293,322,133,179,87,316,258,78,106,286,147,45,79,124,141,235,273,67,236,229]",1,-2,1,0,0,0,122,121,121,12,1,,,,,,,,,,,,,,,,,,,,,
,,,,,,,,,,,,,,,,,,,,,,,,,,,,,,,,,,,,,,,,,,,5b3937c57bc6be00010caf12,5fb5da77803f501d7b68b129,2020-11-18_20h38.33.652,Colour_Similarity_Experiment,2020.1.2,Linux x86_64,60,5fb5945709dec70f2d595766,,,,,,,,,,,,,,,,,,,,FF,,,,,,,,6,2.416,,,,,,,,,,,,,,,,,,,,,,,,,,,,5,47,25,1,0,0,response1disk,5,2,-2,1,0,0,rectangle,2,-2,1,0,0,3,5,"[293,322,133,179,87,316,258,78,106,286,147,45,79,124,141,235,273,67,236,229]",2,-2,1,0,0,0,123,122,122,19,1,,,,,,,,,,,,,,,,,,,,,
,,,,,,,,,,,,,,,,,,,,,,,,,,,,,,,,,,,,,,,,,,,5b3937c57bc6be00010caf12,5fb5da77803f501d7b68b129,2020-11-18_20h38.33.652,Colour_Similarity_Experiment,2020.1.2,Linux x86_64,60,5fb5945709dec70f2d595766,,,,,,,,,,,,,,,,,,,,FF,,,,,,,,7,1.304,,,,,,,,,,,,,,,,,,,,,,,,,,,,9,48,84,1,0,0,response1disk,5,2,10,1,0,0,rectangle,34,-83,1,0,0,4,4,"[293,322,133,179,87,316,258,78,106,286,147,45,79,124,141,235,273,67,236,229]",-19,6,1,0,0,0,124,123,123,128,1,response3disk_3,rectangle,,,,,,,,,,,,,,,,,,,
,,,,,,,,,,,,,,,,,,,,,,,,,,,,,,,,,,,,,,,,,,,5b3937c57bc6be00010caf12,5fb5da77803f501d7b68b129,2020-11-18_20h38.33.652,Colour_Similarity_Experiment,2020.1.2,Linux x86_64,60,5fb5945709dec70f2d595766,,,,,,,,,,,,,,,,,,,,PF,,,,,,,,7,1.722,,,,,,,,,,,,,,,,,,,,,,,,,,,,6,40,71,1,0,0,response1disk,9,9,5,1,0,0,rectangle,9,5,1,0,0,4,1,"[293,322,133,179,87,316,258,78,106,286,147,45,79,124,141,235,273,67,236,229]",9,5,1,0,0,0,125,124,124,45,1,,,,,,,,,,,,,,,,,,,,,
,,,,,,,,,,,,,,,,,,,,,,,,,,,,,,,,,,,,,,,,,,,5b3937c57bc6be00010caf12,5fb5da77803f501d7b68b129,2020-11-18_20h38.33.652,Colour_Similarity_Experiment,2020.1.2,Linux x86_64,60,5fb5945709dec70f2d595766,,,,,,,,,,,,,,,,,,,,PF,,,,,,,,7,1.515,,,,,,,,,,,,,,,,,,,,,,,,,,,,3,31,73,1,0,0,response1disk,1,3,4,1,0,0,rectangle,3,4,1,0,0,4,1,"[293,322,133,179,87,316,258,78,106,286,147,45,79,124,141,235,273,67,236,229]",3,4,1,0,0,0,126,125,125,96,1,,,,,,,,,,,,,,,,,,,,,
,,,,,,,,,,,,,,,,,,,,,,,,,,,,,,,,,,,,,,,,,,,5b3937c57bc6be00010caf12,5fb5da77803f501d7b68b129,2020-11-18_20h38.33.652,Colour_Similarity_Experiment,2020.1.2,Linux x86_64,60,5fb5945709dec70f2d595766,,,,,,,,,,,,,,,,,,,,FF,,,,,,,,6,1.918,,,,,,,,,,,,,,,,,,,,,,,,,,,,8,64,34,1,0,0,response1disk,5,-7,1,1,0,0,rectangle,-7,1,1,0,0,4,5,"[293,322,133,179,87,316,258,78,106,286,147,45,79,124,141,235,273,67,236,229]",-7,1,1,0,0,0,127,126,126,152,1,,,,,,,,,,,,,,,,,,,,,
,,,,,,,,,,,,,,,,,,,,,,,,,,,,,,,,,,,,,,,,,,,5b3937c57bc6be00010caf12,5fb5da77803f501d7b68b129,2020-11-18_20h38.33.652,Colour_Similarity_Experiment,2020.1.2,Linux x86_64,60,5fb5945709dec70f2d595766,,,,,,,,,,,,,,,,,,,,PF,,,,,,,,4,2.367,,,,,,,,,,,,,,,,,,,,,,,,,,,,5,65,-93,1,0,0,response3disk,4,9,-2,1,0,0,rectangle,9,-2,1,0,0,4,4,"[293,322,133,179,87,316,258,78,106,286,147,45,79,124,141,235,273,67,236,229]",9,-2,1,0,0,0,128,127,127,54,1,,,,,,,,,,,,,,,,,,,,,
,,,,,,,,,,,,,,,,,,,,,,,,,,,,,,,,,,,,,,,,,,,5b3937c57bc6be00010caf12,5fb5da77803f501d7b68b129,2020-11-18_20h38.33.652,Colour_Similarity_Experiment,2020.1.2,Linux x86_64,60,5fb5945709dec70f2d595766,,,,,,,,,,,,,,,,,,,,PF,,,,,,,,7,1.269,,,,,,,,,,,,,,,,,,,,,,,,,,,,9,51,85,1,0,0,response1disk,4,10,-1,1,0,0,rectangle,10,-1,1,0,0,4,3,"[293,322,133,179,87,316,258,78,106,286,147,45,79,124,141,235,273,67,236,229]",10,-1,1,0,0,0,129,128,128,114,1,,,,,,,,,,,,,,,,,,,,,
,,,,,,,,,,,,,,,,,,,,,,,,,,,,,,,,,,,,,,,,,,,5b3937c57bc6be00010caf12,5fb5da77803f501d7b68b129,2020-11-18_20h38.33.652,Colour_Similarity_Experiment,2020.1.2,Linux x86_64,60,5fb5945709dec70f2d595766,,,,,,,,,,,,,,,,,,,,FF,,,,,,,,0,1.396,,,,,,,,,,,,,,,,,,,,,,,,,,,,4,-34,72,1,0,0,response7disk,4,6,0,1,0,0,rectangle,6,0,1,0,0,4,6,"[293,322,133,179,87,316,258,78,106,286,147,45,79,124,141,235,273,67,236,229]",6,0,1,0,0,0,130,129,129,84,1,,,,,,,,,,,,,,,,,,,,,
,,,,,,,,,,,,,,,,,,,,,,,,,,,,,,,,,,,,,,,,,,,5b3937c57bc6be00010caf12,5fb5da77803f501d7b68b129,2020-11-18_20h38.33.652,Colour_Similarity_Experiment,2020.1.2,Linux x86_64,60,5fb5945709dec70f2d595766,,,,,,,,,,,,,,,,,,,,PF,,,,,,,,5,1.751,,,,,,,,,,,,,,,,,,,,,,,,,,,,9,65,-34,1,0,0,response3disk,1,5,1,1,0,0,rectangle,5,1,1,0,0,4,4,"[293,322,133,179,87,316,258,78,106,286,147,45,79,124,141,235,273,67,236,229]",5,1,1,0,0,0,131,130,130,74,1,,,,,,,,,,,,,,,,,,,,,
,,,,,,,,,,,,,,,,,,,,,,,,,,,,,,,,,,,,,,,,,,,5b3937c57bc6be00010caf12,5fb5da77803f501d7b68b129,2020-11-18_20h38.33.652,Colour_Similarity_Experiment,2020.1.2,Linux x86_64,60,5fb5945709dec70f2d595766,,,,,,,,,,,,,,,,,,,,FF,,,,,,,,4,2.195,,,,,,,,,,,,,,,,,,,,,,,,,,,,4,34,-96,1,0,0,response3disk,5,16,7,1,0,0,rectangle,16,7,1,0,0,4,2,"[293,322,133,179,87,316,258,78,106,286,147,45,79,124,141,235,273,67,236,229]",16,7,1,0,0,0,132,131,131,116,1,,,,,,,,,,,,,,,,,,,,,
,,,,,,,,,,,,,,,,,,,,,,,,,,,,,,,,,,,,,,,,,,,5b3937c57bc6be00010caf12,5fb5da77803f501d7b68b129,2020-11-18_20h38.33.652,Colour_Similarity_Experiment,2020.1.2,Linux x86_64,60,5fb5945709dec70f2d595766,,,,,,,,,,,,,,,,,,,,FF,,,,,,,,5,4.621,,,,,,,,,,,,,,,,,,,,,,,,,,,,4,74,-52,1,0,0,response3disk,7,-4,3,1,0,0,rectangle,41,-100,1,0,0,4,4,"[293,322,133,179,87,316,258,78,106,286,147,45,79,124,141,235,273,67,236,229]",-3,7,1,0,0,0,133,132,132,87,1,response3disk_3,rectangle,,,,,,,,,,,,,,,,,,,
,,,,,,,,,,,,,,,,,,,,,,,,,,,,,,,,,,,,,,,,,,,5b3937c57bc6be00010caf12,5fb5da77803f501d7b68b129,2020-11-18_20h38.33.652,Colour_Similarity_Experiment,2020.1.2,Linux x86_64,60,5fb5945709dec70f2d595766,,,,,,,,,,,,,,,,,,,,FF,,,,,,,,6,1.847,,,,,,,,,,,,,,,,,,,,,,,,,,,,1,85,44,1,0,0,response1disk,8,17,-2,1,0,0,rectangle,17,-2,1,0,0,4,0,"[293,322,133,179,87,316,258,78,106,286,147,45,79,124,141,235,273,67,236,229]",17,-2,1,0,0,0,134,133,133,27,1,,,,,,,,,,,,,,,,,,,,,
,,,,,,,,,,,,,,,,,,,,,,,,,,,,,,,,,,,,,,,,,,,5b3937c57bc6be00010caf12,5fb5da77803f501d7b68b129,2020-11-18_20h38.33.652,Colour_Similarity_Experiment,2020.1.2,Linux x86_64,60,5fb5945709dec70f2d595766,,,,,,,,,,,,,,,,,,,,PF,,,,,,,,7,1.283,,,,,,,,,,,,,,,,,,,,,,,,,,,,5,42,97,1,0,0,response1disk,8,-5,0,1,0,0,rectangle,-5,0,1,0,0,4,6,"[293,322,133,179,87,316,258,78,106,286,147,45,79,124,141,235,273,67,236,229]",-5,0,1,0,0,0,135,134,134,149,1,,,,,,,,,,,,,,,,,,,,,
,,,,,,,,,,,,,,,,,,,,,,,,,,,,,,,,,,,,,,,,,,,5b3937c57bc6be00010caf12,5fb5da77803f501d7b68b129,2020-11-18_20h38.33.652,Colour_Similarity_Experiment,2020.1.2,Linux x86_64,60,5fb5945709dec70f2d595766,,,,,,,,,,,,,,,,,,,,PF,,,,,,,,7,4.534,,,,,,,,,,,,,,,,,,,,,,,,,,,,7,59,85,1,0,0,response1disk,5,10,3,1,0,0,rectangle,10,3,1,0,0,4,0,"[293,322,133,179,87,316,258,78,106,286,147,45,79,124,141,235,273,67,236,229]",10,3,1,0,0,0,136,135,135,92,1,,,,,,,,,,,,,,,,,,,,,
,,,,,,,,,,,,,,,,,,,,,,,,,,,,,,,,,,,,,,,,,,,5b3937c57bc6be00010caf12,5fb5da77803f501d7b68b129,2020-11-18_20h38.33.652,Colour_Similarity_Experiment,2020.1.2,Linux x86_64,60,5fb5945709dec70f2d595766,,,,,,,,,,,,,,,,,,,,PF,,,,,,,,0,1.166,,,,,,,,,,,,,,,,,,,,,,,,,,,,1,-41,95,1,0,0,response7disk,1,13,-2,1,0,0,rectangle,13,-2,1,0,0,4,6,"[293,322,133,179,87,316,258,78,106,286,147,45,79,124,141,235,273,67,236,229]",13,-2,1,0,0,0,137,136,136,76,1,,,,,,,,,,,,,,,,,,,,,
,,,,,,,,,,,,,,,,,,,,,,,,,,,,,,,,,,,,,,,,,,,5b3937c57bc6be00010caf12,5fb5da77803f501d7b68b129,2020-11-18_20h38.33.652,Colour_Similarity_Experiment,2020.1.2,Linux x86_64,60,5fb5945709dec70f2d595766,,,,,,,,,,,,,,,,,,,,FF,,,,,,,,5,1.284,,,,,,,,,,,,,,,,,,,,,,,,,,,,7,65,-43,1,0,0,response3disk,9,-1,-1,1,0,0,rectangle,-1,-1,1,0,0,4,2,"[293,322,133,179,87,316,258,78,106,286,147,45,79,124,141,235,273,67,236,229]",-1,-1,1,0,0,0,138,137,137,155,1,,,,,,,,,,,,,,,,,,,,,
,,,,,,,,,,,,,,,,,,,,,,,,,,,,,,,,,,,,,,,,,,,5b3937c57bc6be00010caf12,5fb5da77803f501d7b68b129,2020-11-18_20h38.33.652,Colour_Similarity_Experiment,2020.1.2,Linux x86_64,60,5fb5945709dec70f2d595766,,,,,,,,,,,,,,,,,,,,FF,,,,,,,,6,1.933,,,,,,,,,,,,,,,,,,,,,,,,,,,,2,90,63,1,0,0,response1disk,1,3,5,1,0,0,rectangle,3,5,1,0,0,4,0,"[293,322,133,179,87,316,258,78,106,286,147,45,79,124,141,235,273,67,236,229]",3,5,1,0,0,0,139,138,138,85,1,,,,,,,,,,,,,,,,,,,,,
,,,,,,,,,,,,,,,,,,,,,,,,,,,,,,,,,,,,,,,,,,,5b3937c57bc6be00010caf12,5fb5da77803f501d7b68b129,2020-11-18_20h38.33.652,Colour_Similarity_Experiment,2020.1.2,Linux x86_64,60,5fb5945709dec70f2d595766,,,,,,,,,,,,,,,,,,,,PF,,,,,,,,7,1.249,,,,,,,,,,,,,,,,,,,,,,,,,,,,3,37,98,1,0,0,response1disk,7,-2,6,1,0,0,rectangle,-2,6,1,0,0,4,1,"[293,322,133,179,87,316,258,78,106,286,147,45,79,124,141,235,273,67,236,229]",-2,6,1,0,0,0,140,139,139,41,1,,,,,,,,,,,,,,,,,,,,,
,,,,,,,,,,,,,,,,,,,,,,,,,,,,,,,,,,,,,,,,,,,5b3937c57bc6be00010caf12,5fb5da77803f501d7b68b129,2020-11-18_20h38.33.652,Colour_Similarity_Experiment,2020.1.2,Linux x86_64,60,5fb5945709dec70f2d595766,,,,,,,,,,,,,,,,,,,,FF,,,,,,,,6,2.201,,,,,,,,,,,,,,,,,,,,,,,,,,,,2,89,53,1,0,0,response1disk,3,0,1,1,0,0,rectangle,-87,46,1,0,0,1,1,"[293,322,133,179,87,316,258,78,106,286,147,45,79,124,141,235,273,67,236,229]",10,-4,1,0,0,0,141,140,140,104,1,response7disk_3,rectangle,,,,,,,,,,,,,,,,,,,
,,,,,,,,,,,,,,,,,,,,,,,,,,,,,,,,,,,,,,,,,,,5b3937c57bc6be00010caf12,5fb5da77803f501d7b68b129,2020-11-18_20h38.33.652,Colour_Similarity_Experiment,2020.1.2,Linux x86_64,60,5fb5945709dec70f2d595766,,,,,,,,,,,,,,,,,,,,PF,,,,,,,,7,1.099,,,,,,,,,,,,,,,,,,,,,,,,,,,,1,35,76,1,0,0,response1disk,5,-5,-7,1,0,0,rectangle,-5,-7,1,0,0,1,5,"[293,322,133,179,87,316,258,78,106,286,147,45,79,124,141,235,273,67,236,229]",-5,-7,1,0,0,0,142,141,141,28,1,,,,,,,,,,,,,,,,,,,,,
,,,,,,,,,,,,,,,,,,,,,,,,,,,,,,,,,,,,,,,,,,,5b3937c57bc6be00010caf12,5fb5da77803f501d7b68b129,2020-11-18_20h38.33.652,Colour_Similarity_Experiment,2020.1.2,Linux x86_64,60,5fb5945709dec70f2d595766,,,,,,,,,,,,,,,,,,,,FF,,,,,,,,4,1.846,,,,,,,,,,,,,,,,,,,,,,,,,,,,9,46,-85,1,0,0,response3disk,8,-9,7,1,0,0,rectangle,-9,7,1,0,0,1,2,"[293,322,133,179,87,316,258,78,106,286,147,45,79,124,141,235,273,67,236,229]",-9,7,1,0,0,0,143,142,142,6,1,,,,,,,,,,,,,,,,,,,,,
,,,,,,,,,,,,,,,,,,,,,,,,,,,,,,,,,,,,,,,,,,,5b3937c57bc6be00010caf12,5fb5da77803f501d7b68b129,2020-11-18_20h38.33.652,Colour_Similarity_Experiment,2020.1.2,Linux x86_64,60,5fb5945709dec70f2d595766,,,,,,,,,,,,,,,,,,,,PF,,,,,,,,7,1.098,,,,,,,,,,,,,,,,,,,,,,,,,,,,1,31,72,1,0,0,response1disk,3,-10,-2,1,0,0,rectangle,-10,-2,1,0,0,1,6,"[293,322,133,179,87,316,258,78,106,286,147,45,79,124,141,235,273,67,236,229]",-10,-2,1,0,0,0,144,143,143,1,1,,,,,,,,,,,,,,,,,,,,,
,,,,,,,,,,,,,,,,,,,,,,,,,,,,,,,,,,,,,,,,,,,5b3937c57bc6be00010caf12,5fb5da77803f501d7b68b129,2020-11-18_20h38.33.652,Colour_Similarity_Experiment,2020.1.2,Linux x86_64,60,5fb5945709dec70f2d595766,,,,,,,,,,,,,,,,,,,,PF,,,,,,,,5,2.267,,,,,,,,,,,,,,,,,,,,,,,,,,,,8,70,-41,1,0,0,response3disk,7,-6,5,1,0,0,rectangle,-6,5,1,0,0,1,2,"[293,322,133,179,87,316,258,78,106,286,147,45,79,124,141,235,273,67,236,229]",-6,5,1,0,0,0,145,144,144,23,1,,,,,,,,,,,,,,,,,,,,,
,,,,,,,,,,,,,,,,,,,,,,,,,,,,,,,,,,,,,,,,,,,5b3937c57bc6be00010caf12,5fb5da77803f501d7b68b129,2020-11-18_20h38.33.652,Colour_Similarity_Experiment,2020.1.2,Linux x86_64,60,5fb5945709dec70f2d595766,,,,,,,,,,,,,,,,,,,,PF,,,,,,,,3,1.484,,,,,,,,,,,,,,,,,,,,,,,,,,,,4,-38,-95,1,0,0,response5disk,3,-5,-3,1,0,0,rectangle,-5,-3,1,0,0,1,1,"[293,322,133,179,87,316,258,78,106,286,147,45,79,124,141,235,273,67,236,229]",-5,-3,1,0,0,0,146,145,145,89,1,,,,,,,,,,,,,,,,,,,,,
,,,,,,,,,,,,,,,,,,,,,,,,,,,,,,,,,,,,,,,,,,,5b3937c57bc6be00010caf12,5fb5da77803f501d7b68b129,2020-11-18_20h38.33.652,Colour_Similarity_Experiment,2020.1.2,Linux x86_64,60,5fb5945709dec70f2d595766,,,,,,,,,,,,,,,,,,,,FF,,,,,,,,7,1.098,,,,,,,,,,,,,,,,,,,,,,,,,,,,4,19,73,1,0,0,response1disk,9,-29,1,1,0,0,rectangle,-41,80,1,0,0,0,0,"[293,322,133,179,87,316,258,78,106,286,147,45,79,124,141,235,273,67,236,229]",8,-5,1,0,0,0,147,146,146,90,1,response7disk_3,rectangle,,,,,,,,,,,,,,,,,,,
,,,,,,,,,,,,,,,,,,,,,,,,,,,,,,,,,,,,,,,,,,,5b3937c57bc6be00010caf12,5fb5da77803f501d7b68b129,2020-11-18_20h38.33.652,Colour_Similarity_Experiment,2020.1.2,Linux x86_64,60,5fb5945709dec70f2d595766,,,,,,,,,,,,,,,,,,,,PF,,,,,,,,3,1.457,,,,,,,,,,,,,,,,,,,,,,,,,,,,3,-47,-79,1,0,0,response5disk,4,-3,-5,1,0,0,rectangle,-3,-5,1,0,0,0,4,"[293,322,133,179,87,316,258,78,106,286,147,45,79,124,141,235,273,67,236,229]",-3,-5,1,0,0,0,148,147,147,30,1,,,,,,,,,,,,,,,,,,,,,
,,,,,,,,,,,,,,,,,,,,,,,,,,,,,,,,,,,,,,,,,,,5b3937c57bc6be00010caf12,5fb5da77803f501d7b68b129,2020-11-18_20h38.33.652,Colour_Similarity_Experiment,2020.1.2,Linux x86_64,60,5fb5945709dec70f2d595766,,,,,,,,,,,,,,,,,,,,FF,,,,,,,,7,1.415,,,,,,,,,,,,,,,,,,,,,,,,,,,,8,41,87,1,0,0,response1disk,3,6,3,1,0,0,rectangle,6,3,1,0,0,0,7,"[293,322,133,179,87,316,258,78,106,286,147,45,79,124,141,235,273,67,236,229]",6,3,1,0,0,0,149,148,148,154,1,,,,,,,,,,,,,,,,,,,,,
,,,,,,,,,,,,,,,,,,,,,,,,,,,,,,,,,,,,,,,,,,,5b3937c57bc6be00010caf12,5fb5da77803f501d7b68b129,2020-11-18_20h38.33.652,Colour_Similarity_Experiment,2020.1.2,Linux x86_64,60,5fb5945709dec70f2d595766,,,,,,,,,,,,,,,,,,,,FF,,,,,,,,7,1.716,,,,,,,,,,,,,,,,,,,,,,,,,,,,7,38,78,1,0,0,response1disk,3,16,12,1,0,0,rectangle,16,12,1,0,0,0,1,"[293,322,133,179,87,316,258,78,106,286,147,45,79,124,141,235,273,67,236,229]",16,12,1,0,0,0,150,149,149,73,1,,,,,,,,,,,,,,,,,,,,,
,,,,,,,,,,,,,,,,,,,,,,,,,,,,,,,,,,,,,,,,,,,5b3937c57bc6be00010caf12,5fb5da77803f501d7b68b129,2020-11-18_20h38.33.652,Colour_Similarity_Experiment,2020.1.2,Linux x86_64,60,5fb5945709dec70f2d595766,,,,,,,,,,,,,,,,,,,,PF,,,,,,,,6,1.89,,,,,,,,,,,,,,,,,,,,,,,,,,,,2,79,61,1,0,0,response1disk,9,0,9,1,0,0,rectangle,0,9,1,0,0,0,0,"[293,322,133,179,87,316,258,78,106,286,147,45,79,124,141,235,273,67,236,229]",0,9,1,0,0,0,151,150,150,39,1,,,,,,,,,,,,,,,,,,,,,
,,,,,,,,,,,,,,,,,,,,,,,,,,,,,,,,,,,,,,,,,,,5b3937c57bc6be00010caf12,5fb5da77803f501d7b68b129,2020-11-18_20h38.33.652,Colour_Similarity_Experiment,2020.1.2,Linux x86_64,60,5fb5945709dec70f2d595766,,,,,,,,,,,,,,,,,,,,PF,,,,,,,,7,2.016,,,,,,,,,,,,,,,,,,,,,,,,,,,,9,39,86,1,0,0,response1disk,5,-2,7,1,0,0,rectangle,-2,7,1,0,0,0,4,"[293,322,133,179,87,316,258,78,106,286,147,45,79,124,141,235,273,67,236,229]",-2,7,1,0,0,0,152,151,151,134,1,,,,,,,,,,,,,,,,,,,,,
,,,,,,,,,,,,,,,,,,,,,,,,,,,,,,,,,,,,,,,,,,,5b3937c57bc6be00010caf12,5fb5da77803f501d7b68b129,2020-11-18_20h38.33.652,Colour_Similarity_Experiment,2020.1.2,Linux x86_64,60,5fb5945709dec70f2d595766,,,,,,,,,,,,,,,,,,,,PF,,,,,,,,7,1.017,,,,,,,,,,,,,,,,,,,,,,,,,,,,7,35,96,1,0,0,response1disk,2,13,11,1,0,0,rectangle,13,11,1,0,0,0,5,"[293,322,133,179,87,316,258,78,106,286,147,45,79,124,141,235,273,67,236,229]",13,11,1,0,0,0,153,152,152,32,1,,,,,,,,,,,,,,,,,,,,,
,,,,,,,,,,,,,,,,,,,,,,,,,,,,,,,,,,,,,,,,,,,5b3937c57bc6be00010caf12,5fb5da77803f501d7b68b129,2020-11-18_20h38.33.652,Colour_Similarity_Experiment,2020.1.2,Linux x86_64,60,5fb5945709dec70f2d595766,,,,,,,,,,,,,,,,,,,,FF,,,,,,,,7,1.161,,,,,,,,,,,,,,,,,,,,,,,,,,,,4,34,81,1,0,0,response1disk,1,3,2,1,0,0,rectangle,3,2,1,0,0,0,7,"[293,322,133,179,87,316,258,78,106,286,147,45,79,124,141,235,273,67,236,229]",3,2,1,0,0,0,154,153,153,102,1,,,,,,,,,,,,,,,,,,,,,
,,,,,,,,,,,,,,,,,,,,,,,,,,,,,,,,,,,,,,,,,,,5b3937c57bc6be00010caf12,5fb5da77803f501d7b68b129,2020-11-18_20h38.33.652,Colour_Similarity_Experiment,2020.1.2,Linux x86_64,60,5fb5945709dec70f2d595766,,,,,,,,,,,,,,,,,,,,FF,,,,,,,,0,1.116,,,,,,,,,,,,,,,,,,,,,,,,,,,,6,-52,100,1,0,0,response7disk,6,-1,8,1,0,0,rectangle,-1,8,1,0,0,0,3,"[293,322,133,179,87,316,258,78,106,286,147,45,79,124,141,235,273,67,236,229]",-1,8,1,0,0,0,155,154,154,91,1,,,,,,,,,,,,,,,,,,,,,
,,,,,,,,,,,,,,,,,,,,,,,,,,,,,,,,,,,,,,,,,,,5b3937c57bc6be00010caf12,5fb5da77803f501d7b68b129,2020-11-18_20h38.33.652,Colour_Similarity_Experiment,2020.1.2,Linux x86_64,60,5fb5945709dec70f2d595766,,,,,,,,,,,,,,,,,,,,FF,,,,,,,,6,1.726,,,,,,,,,,,,,,,,,,,,,,,,,,,,8,59,37,1,0,0,response1disk,6,19,2,1,0,0,rectangle,19,2,1,0,0,0,0,"[293,322,133,179,87,316,258,78,106,286,147,45,79,124,141,235,273,67,236,229]",19,2,1,0,0,0,156,155,155,37,1,,,,,,,,,,,,,,,,,,,,,
,,,,,,,,,,,,,,,,,,,,,,,,,,,,,,,,,,,,,,,,,,,5b3937c57bc6be00010caf12,5fb5da77803f501d7b68b129,2020-11-18_20h38.33.652,Colour_Similarity_Experiment,2020.1.2,Linux x86_64,60,5fb5945709dec70f2d595766,,,,,,,,,,,,,,,,,,,,FF,,,,,,,,7,1.034,,,,,,,,,,,,,,,,,,,,,,,,,,,,1,34,76,1,0,0,response1disk,6,14,8,1,0,0,rectangle,14,8,1,0,0,0,2,"[293,322,133,179,87,316,258,78,106,286,147,45,79,124,141,235,273,67,236,229]",14,8,1,0,0,0,157,156,156,58,1,,,,,,,,,,,,,,,,,,,,,
,,,,,,,,,,,,,,,,,,,,,,,,,,,,,,,,,,,,,,,,,,,5b3937c57bc6be00010caf12,5fb5da77803f501d7b68b129,2020-11-18_20h38.33.652,Colour_Similarity_Experiment,2020.1.2,Linux x86_64,60,5fb5945709dec70f2d595766,,,,,,,,,,,,,,,,,,,,PF,,,,,,,,5,2.551,,,,,,,,,,,,,,,,,,,,,,,,,,,,5,57,-33,1,0,0,response3disk,7,1,4,1,0,0,rectangle,1,4,1,0,0,0,2,"[293,322,133,179,87,316,258,78,106,286,147,45,79,124,141,235,273,67,236,229]",1,4,1,0,0,0,158,157,157,146,1,,,,,,,,,,,,,,,,,,,,,
,,,,,,,,,,,,,,,,,,,,,,,,,,,,,,,,,,,,,,,,,,,5b3937c57bc6be00010caf12,5fb5da77803f501d7b68b129,2020-11-18_20h38.33.652,Colour_Similarity_Experiment,2020.1.2,Linux x86_64,60,5fb5945709dec70f2d595766,,,,,,,,,,,,,,,,,,,,PF,,,,,,,,3,2.149,,,,,,,,,,,,,,,,,,,,,,,,,,,,9,-25,-91,1,0,0,response5disk,8,18,5,1,0,0,rectangle,18,5,1,0,0,0,7,"[293,322,133,179,87,316,258,78,106,286,147,45,79,124,141,235,273,67,236,229]",18,5,1,0,0,0,159,158,158,67,1,,,,,,,,,,,,,,,,,,,,,
,,,,,,,,,,,,,,,,,,,,,,,,,,,,,,,,,,,,,,,,,,,5b3937c57bc6be00010caf12,5fb5da77803f501d7b68b129,2020-11-18_20h38.33.652,Colour_Similarity_Experiment,2020.1.2,Linux x86_64,60,5fb5945709dec70f2d595766,,,,,,,,,,,,,,,,,,,,PF,,,,,,,,5,1.751,,,,,,,,,,,,,,,,,,,,,,,,,,,,9,86,-24,1,0,0,response3disk,6,11,4,1,0,0,rectangle,11,4,1,0,0,0,7,"[293,322,133,179,87,316,258,78,106,286,147,45,79,124,141,235,273,67,236,229]",11,4,1,0,0,0,160,159,159,148,1,,,,,,,,,,,,,,,,,,,,,
,,,,,,,,,,,,,,,,,,,,,,,,,,,,,,,,,,,,,,,,,,,5b3937c57bc6be00010caf12,5fb5da77803f501d7b68b129,2020-11-18_20h38.33.652,Colour_Similarity_Experiment,2020.1.2,Linux x86_64,60,5fb5945709dec70f2d595766,,,,,,,,,,,,,,,,,,,,FF,,,,,,,,0,1.072,,,,,,,,,,,,,,,,,,,,,,,,,,,,7,-59,93,1,0,0,response7disk,7,-1,8,1,0,0,rectangle,-1,8,1,0,0,0,1,"[293,322,133,179,87,316,258,78,106,286,147,45,79,124,141,235,273,67,236,229]",-1,8,1,0,0,0,161,160,160,34,1,,,,,,,,,,,,,,,,,,,,,
,,,,,,,,,,,,,,,,,,,,,,,,,,,,,,,,,,,,,,,,,,,5b3937c57bc6be00010caf12,5fb5da77803f501d7b68b129,2020-11-18_20h38.33.652,Colour_Similarity_Experiment,2020.1.2,Linux x86_64,60,5fb5945709dec70f2d595766,,,,,,,,,,,,,,,,,,,,PF,,,,,,,,0,1.125,,,,,,,,,,,,,,,,,,,,,,,,,,,,4,-51,77,1,0,0,response7disk,4,3,-5,1,0,0,rectangle,3,-5,1,0,0,0,1,"[293,322,133,179,87,316,258,78,106,286,147,45,79,124,141,235,273,67,236,229]",3,-5,1,0,0,0,162,161,161,70,1,,,,,,,,,,,,,,,,,,,,,
,,,,,,,,,,,,,,,,,,,,,,,,,,,,,,,,,,,,,,,,,,,5b3937c57bc6be00010caf12,5fb5da77803f501d7b68b129,2020-11-18_20h38.33.652,Colour_Similarity_Experiment,2020.1.2,Linux x86_64,60,5fb5945709dec70f2d595766,,,,,,,,,,,,,,,,,,,,,,,,,,,,,,,,,,,,,,,,,,,,,,,,,,,,,,,,,,,,,,,,,,,,,,,,,,,,,,,,,,,,,,,,,,,,0,0,0,0,1,,,,,,,,,,,,,,
,,,,,,,,,,,,,,,,,,,,,,,,,,,,,,,,,,,,,,,,,,,5b3937c57bc6be00010caf12,5fb5da77803f501d7b68b129,2020-11-18_20h38.33.652,Colour_Similarity_Experiment,2020.1.2,Linux x86_64,60,5fb5945709dec70f2d595766,,,,,,,,,,,,,,,,,,,,FF,,,,,,,,7,1.416,,,,,,,,,,,,,,,,,,,,,,,,,,,,5,34,88,1,0,0,response1disk,9,3,-3,1,0,0,rectangle,3,-3,1,0,0,0,6,"[293,322,133,179,87,316,258,78,106,286,147,45,79,124,141,235,273,67,236,229]",3,-3,1,0,0,0,163,0,0,61,1,,,,,,,,,,,,,,,,,,,,,
,,,,,,,,,,,,,,,,,,,,,,,,,,,,,,,,,,,,,,,,,,,5b3937c57bc6be00010caf12,5fb5da77803f501d7b68b129,2020-11-18_20h38.33.652,Colour_Similarity_Experiment,2020.1.2,Linux x86_64,60,5fb5945709dec70f2d595766,,,,,,,,,,,,,,,,,,,,PF,,,,,,,,7,1.983,,,,,,,,,,,,,,,,,,,,,,,,,,,,6,27,78,1,0,0,response1disk,2,10,-5,1,0,0,rectangle,10,-5,1,0,0,0,0,"[293,322,133,179,87,316,258,78,106,286,147,45,79,124,141,235,273,67,236,229]",10,-5,1,0,0,0,164,1,1,130,1,,,,,,,,,,,,,,,,,,,,,
,,,,,,,,,,,,,,,,,,,,,,,,,,,,,,,,,,,,,,,,,,,5b3937c57bc6be00010caf12,5fb5da77803f501d7b68b129,2020-11-18_20h38.33.652,Colour_Similarity_Experiment,2020.1.2,Linux x86_64,60,5fb5945709dec70f2d595766,,,,,,,,,,,,,,,,,,,,FF,,,,,,,,7,1.021,,,,,,,,,,,,,,,,,,,,,,,,,,,,8,31,86,1,0,0,response1disk,2,13,3,1,0,0,rectangle,13,3,1,0,0,0,4,"[293,322,133,179,87,316,258,78,106,286,147,45,79,124,141,235,273,67,236,229]",13,3,1,0,0,0,165,2,2,22,1,,,,,,,,,,,,,,,,,,,,,
,,,,,,,,,,,,,,,,,,,,,,,,,,,,,,,,,,,,,,,,,,,5b3937c57bc6be00010caf12,5fb5da77803f501d7b68b129,2020-11-18_20h38.33.652,Colour_Similarity_Experiment,2020.1.2,Linux x86_64,60,5fb5945709dec70f2d595766,,,,,,,,,,,,,,,,,,,,PF,,,,,,,,2,1.981,,,,,,,,,,,,,,,,,,,,,,,,,,,,8,-73,-51,1,0,0,response5disk,8,-18,1,1,0,0,rectangle,-18,1,1,0,0,0,5,"[293,322,133,179,87,316,258,78,106,286,147,45,79,124,141,235,273,67,236,229]",-18,1,1,0,0,0,166,3,3,153,1,,,,,,,,,,,,,,,,,,,,,
,,,,,,,,,,,,,,,,,,,,,,,,,,,,,,,,,,,,,,,,,,,5b3937c57bc6be00010caf12,5fb5da77803f501d7b68b129,2020-11-18_20h38.33.652,Colour_Similarity_Experiment,2020.1.2,Linux x86_64,60,5fb5945709dec70f2d595766,,,,,,,,,,,,,,,,,,,,FF,,,,,,,,7,1.805,,,,,,,,,,,,,,,,,,,,,,,,,,,,2,30,84,1,0,0,response1disk,5,1,1,1,0,0,rectangle,1,1,1,0,0,0,6,"[293,322,133,179,87,316,258,78,106,286,147,45,79,124,141,235,273,67,236,229]",1,1,1,0,0,0,167,4,4,80,1,,,,,,,,,,,,,,,,,,,,,
,,,,,,,,,,,,,,,,,,,,,,,,,,,,,,,,,,,,,,,,,,,5b3937c57bc6be00010caf12,5fb5da77803f501d7b68b129,2020-11-18_20h38.33.652,Colour_Similarity_Experiment,2020.1.2,Linux x86_64,60,5fb5945709dec70f2d595766,,,,,,,,,,,,,,,,,,,,PF,,,,,,,,7,1.258,,,,,,,,,,,,,,,,,,,,,,,,,,,,1,54,99,1,0,0,response1disk,6,11,-3,1,0,0,rectangle,11,-3,1,0,0,0,5,"[293,322,133,179,87,316,258,78,106,286,147,45,79,124,141,235,273,67,236,229]",11,-3,1,0,0,0,168,5,5,144,1,,,,,,,,,,,,,,,,,,,,,
,,,,,,,,,,,,,,,,,,,,,,,,,,,,,,,,,,,,,,,,,,,5b3937c57bc6be00010caf12,5fb5da77803f501d7b68b129,2020-11-18_20h38.33.652,Colour_Similarity_Experiment,2020.1.2,Linux x86_64,60,5fb5945709dec70f2d595766,,,,,,,,,,,,,,,,,,,,FF,,,,,,,,0,1.049,,,,,,,,,,,,,,,,,,,,,,,,,,,,1,-53,84,1,0,0,response7disk,1,-3,4,1,0,0,rectangle,-3,4,1,0,0,0,3,"[293,322,133,179,87,316,258,78,106,286,147,45,79,124,141,235,273,67,236,229]",-3,4,1,0,0,0,169,6,6,151,1,,,,,,,,,,,,,,,,,,,,,
,,,,,,,,,,,,,,,,,,,,,,,,,,,,,,,,,,,,,,,,,,,5b3937c57bc6be00010caf12,5fb5da77803f501d7b68b129,2020-11-18_20h38.33.652,Colour_Similarity_Experiment,2020.1.2,Linux x86_64,60,5fb5945709dec70f2d595766,,,,,,,,,,,,,,,,,,,,FF,,,,,,,,1,1.431,,,,,,,,,,,,,,,,,,,,,,,,,,,,9,-65,37,1,0,0,response7disk,9,13,-3,1,0,0,rectangle,13,-3,1,0,0,0,0,"[293,322,133,179,87,316,258,78,106,286,147,45,79,124,141,235,273,67,236,229]",13,-3,1,0,0,0,170,7,7,17,1,,,,,,,,,,,,,,,,,,,,,
,,,,,,,,,,,,,,,,,,,,,,,,,,,,,,,,,,,,,,,,,,,5b3937c57bc6be00010caf12,5fb5da77803f501d7b68b129,2020-11-18_20h38.33.652,Colour_Similarity_Experiment,2020.1.2,Linux x86_64,60,5fb5945709dec70f2d595766,,,,,,,,,,,,,,,,,,,,FF,,,,,,,,6,1.305,,,,,,,,,,,,,,,,,,,,,,,,,,,,4,63,41,1,0,0,response1disk,6,5,1,1,0,0,rectangle,5,1,1,0,0,0,1,"[293,322,133,179,87,316,258,78,106,286,147,45,79,124,141,235,273,67,236,229]",5,1,1,0,0,0,171,8,8,122,1,,,,,,,,,,,,,,,,,,,,,
,,,,,,,,,,,,,,,,,,,,,,,,,,,,,,,,,,,,,,,,,,,5b3937c57bc6be00010caf12,5fb5da77803f501d7b68b129,2020-11-18_20h38.33.652,Colour_Similarity_Experiment,2020.1.2,Linux x86_64,60,5fb5945709dec70f2d595766,,,,,,,,,,,,,,,,,,,,FF,,,,,,,,7,1.105,,,,,,,,,,,,,,,,,,,,,,,,,,,,2,43,84,1,0,0,response1disk,8,14,2,1,0,0,rectangle,14,2,1,0,0,0,0,"[293,322,133,179,87,316,258,78,106,286,147,45,79,124,141,235,273,67,236,229]",14,2,1,0,0,0,172,9,9,62,1,,,,,,,,,,,,,,,,,,,,,
,,,,,,,,,,,,,,,,,,,,,,,,,,,,,,,,,,,,,,,,,,,5b3937c57bc6be00010caf12,5fb5da77803f501d7b68b129,2020-11-18_20h38.33.652,Colour_Similarity_Experiment,2020.1.2,Linux x86_64,60,5fb5945709dec70f2d595766,,,,,,,,,,,,,,,,,,,,FF,,,,,,,,7,1.016,,,,,,,,,,,,,,,,,,,,,,,,,,,,1,43,69,1,0,0,response1disk,5,9,5,1,0,0,rectangle,9,5,1,0,0,0,1,"[293,322,133,179,87,316,258,78,106,286,147,45,79,124,141,235,273,67,236,229]",9,5,1,0,0,0,173,10,10,82,1,,,,,,,,,,,,,,,,,,,,,
,,,,,,,,,,,,,,,,,,,,,,,,,,,,,,,,,,,,,,,,,,,5b3937c57bc6be00010caf12,5fb5da77803f501d7b68b129,2020-11-18_20h38.33.652,Colour_Similarity_Experiment,2020.1.2,Linux x86_64,60,5fb5945709dec70f2d595766,,,,,,,,,,,,,,,,,,,,PF,,,,,,,,0,1.049,,,,,,,,,,,,,,,,,,,,,,,,,,,,7,-61,85,1,0,0,response7disk,7,9,11,1,0,0,rectangle,9,11,1,0,0,0,3,"[293,322,133,179,87,316,258,78,106,286,147,45,79,124,141,235,273,67,236,229]",9,11,1,0,0,0,174,11,11,51,1,,,,,,,,,,,,,,,,,,,,,
,,,,,,,,,,,,,,,,,,,,,,,,,,,,,,,,,,,,,,,,,,,5b3937c57bc6be00010caf12,5fb5da77803f501d7b68b129,2020-11-18_20h38.33.652,Colour_Similarity_Experiment,2020.1.2,Linux x86_64,60,5fb5945709dec70f2d595766,,,,,,,,,,,,,,,,,,,,PF,,,,,,,,7,1.203,,,,,,,,,,,,,,,,,,,,,,,,,,,,6,31,87,1,0,0,response1disk,4,-1,15,1,0,0,rectangle,-1,15,1,0,0,0,5,"[293,322,133,179,87,316,258,78,106,286,147,45,79,124,141,235,273,67,236,229]",-1,15,1,0,0,0,175,12,12,33,1,,,,,,,,,,,,,,,,,,,,,
,,,,,,,,,,,,,,,,,,,,,,,,,,,,,,,,,,,,,,,,,,,5b3937c57bc6be00010caf12,5fb5da77803f501d7b68b129,2020-11-18_20h38.33.652,Colour_Similarity_Experiment,2020.1.2,Linux x86_64,60,5fb5945709dec70f2d595766,,,,,,,,,,,,,,,,,,,,PF,,,,,,,,6,1.734,,,,,,,,,,,,,,,,,,,,,,,,,,,,4,43,37,1,0,0,response1disk,2,1,9,1,0,0,rectangle,1,9,1,0,0,0,0,"[293,322,133,179,87,316,258,78,106,286,147,45,79,124,141,235,273,67,236,229]",1,9,1,0,0,0,176,13,13,108,1,,,,,,,,,,,,,,,,,,,,,
,,,,,,,,,,,,,,,,,,,,,,,,,,,,,,,,,,,,,,,,,,,5b3937c57bc6be00010caf12,5fb5da77803f501d7b68b129,2020-11-18_20h38.33.652,Colour_Similarity_Experiment,2020.1.2,Linux x86_64,60,5fb5945709dec70f2d595766,,,,,,,,,,,,,,,,,,,,FF,,,,,,,,7,2.3,,,,,,,,,,,,,,,,,,,,,,,,,,,,3,33,64,1,0,0,response1disk,6,1,9,1,0,0,rectangle,1,9,1,0,0,0,2,"[293,322,133,179,87,316,258,78,106,286,147,45,79,124,141,235,273,67,236,229]",1,9,1,0,0,0,177,14,14,95,1,,,,,,,,,,,,,,,,,,,,,
,,,,,,,,,,,,,,,,,,,,,,,,,,,,,,,,,,,,,,,,,,,5b3937c57bc6be00010caf12,5fb5da77803f501d7b68b129,2020-11-18_20h38.33.652,Colour_Similarity_Experiment,2020.1.2,Linux x86_64,60,5fb5945709dec70f2d595766,,,,,,,,,,,,,,,,,,,,PF,,,,,,,,7,1.068,,,,,,,,,,,,,,,,,,,,,,,,,,,,4,34,75,1,0,0,response1disk,8,-6,1,1,0,0,rectangle,-6,1,1,0,0,0,1,"[293,322,133,179,87,316,258,78,106,286,147,45,79,124,141,235,273,67,236,229]",-6,1,1,0,0,0,178,15,15,124,1,,,,,,,,,,,,,,,,,,,,,
,,,,,,,,,,,,,,,,,,,,,,,,,,,,,,,,,,,,,,,,,,,5b3937c57bc6be00010caf12,5fb5da77803f501d7b68b129,2020-11-18_20h38.33.652,Colour_Similarity_Experiment,2020.1.2,Linux x86_64,60,5fb5945709dec70f2d595766,,,,,,,,,,,,,,,,,,,,FF,,,,,,,,7,1.098,,,,,,,,,,,,,,,,,,,,,,,,,,,,7,38,62,1,0,0,response1disk,4,11,7,1,0,0,rectangle,50,-100,1,0,0,4,4,"[293,322,133,179,87,316,258,78,106,286,147,45,79,124,141,235,273,67,236,229]",-2,0,1,0,0,0,179,16,16,158,1,response3disk_3,rectangle,,,,,,,,,,,,,,,,,,,
,,,,,,,,,,,,,,,,,,,,,,,,,,,,,,,,,,,,,,,,,,,5b3937c57bc6be00010caf12,5fb5da77803f501d7b68b129,2020-11-18_20h38.33.652,Colour_Similarity_Experiment,2020.1.2,Linux x86_64,60,5fb5945709dec70f2d595766,,,,,,,,,,,,,,,,,,,,FF,,,,,,,,5,1.854,,,,,,,,,,,,,,,,,,,,,,,,,,,,9,75,-40,1,0,0,response3disk,1,22,-2,1,0,0,rectangle,22,-2,1,0,0,4,6,"[293,322,133,179,87,316,258,78,106,286,147,45,79,124,141,235,273,67,236,229]",22,-2,1,0,0,0,180,17,17,111,1,,,,,,,,,,,,,,,,,,,,,
,,,,,,,,,,,,,,,,,,,,,,,,,,,,,,,,,,,,,,,,,,,5b3937c57bc6be00010caf12,5fb5da77803f501d7b68b129,2020-11-18_20h38.33.652,Colour_Similarity_Experiment,2020.1.2,Linux x86_64,60,5fb5945709dec70f2d595766,,,,,,,,,,,,,,,,,,,,FF,,,,,,,,6,1.802,,,,,,,,,,,,,,,,,,,,,,,,,,,,5,78,30,1,0,0,response1disk,4,-2,2,1,0,0,rectangle,-2,2,1,0,0,4,6,"[293,322,133,179,87,316,258,78,106,286,147,45,79,124,141,235,273,67,236,229]",-2,2,1,0,0,0,181,18,18,8,1,,,,,,,,,,,,,,,,,,,,,
,,,,,,,,,,,,,,,,,,,,,,,,,,,,,,,,,,,,,,,,,,,5b3937c57bc6be00010caf12,5fb5da77803f501d7b68b129,2020-11-18_20h38.33.652,Colour_Similarity_Experiment,2020.1.2,Linux x86_64,60,5fb5945709dec70f2d595766,,,,,,,,,,,,,,,,,,,,FF,,,,,,,,6,1.764,,,,,,,,,,,,,,,,,,,,,,,,,,,,6,72,46,1,0,0,response1disk,8,13,-3,1,0,0,rectangle,13,-3,1,0,0,4,3,"[293,322,133,179,87,316,258,78,106,286,147,45,79,124,141,235,273,67,236,229]",13,-3,1,0,0,0,182,19,19,133,1,,,,,,,,,,,,,,,,,,,,,
,,,,,,,,,,,,,,,,,,,,,,,,,,,,,,,,,,,,,,,,,,,5b3937c57bc6be00010caf12,5fb5da77803f501d7b68b129,2020-11-18_20h38.33.652,Colour_Similarity_Experiment,2020.1.2,Linux x86_64,60,5fb5945709dec70f2d595766,,,,,,,,,,,,,,,,,,,,FF,,,,,,,,0,1.183,,,,,,,,,,,,,,,,,,,,,,,,,,,,2,-55,75,1,0,0,response7disk,2,8,3,1,0,0,rectangle,8,3,1,0,0,4,5,"[293,322,133,179,87,316,258,78,106,286,147,45,79,124,141,235,273,67,236,229]",8,3,1,0,0,0,183,20,20,142,1,,,,,,,,,,,,,,,,,,,,,
,,,,,,,,,,,,,,,,,,,,,,,,,,,,,,,,,,,,,,,,,,,5b3937c57bc6be00010caf12,5fb5da77803f501d7b68b129,2020-11-18_20h38.33.652,Colour_Similarity_Experiment,2020.1.2,Linux x86_64,60,5fb5945709dec70f2d595766,,,,,,,,,,,,,,,,,,,,PF,,,,,,,,7,1.6,,,,,,,,,,,,,,,,,,,,,,,,,,,,7,37,86,1,0,0,response1disk,4,11,-2,1,0,0,rectangle,11,-2,1,0,0,4,4,"[293,322,133,179,87,316,258,78,106,286,147,45,79,124,141,235,273,67,236,229]",11,-2,1,0,0,0,184,21,21,43,1,,,,,,,,,,,,,,,,,,,,,
,,,,,,,,,,,,,,,,,,,,,,,,,,,,,,,,,,,,,,,,,,,5b3937c57bc6be00010caf12,5fb5da77803f501d7b68b129,2020-11-18_20h38.33.652,Colour_Similarity_Experiment,2020.1.2,Linux x86_64,60,5fb5945709dec70f2d595766,,,,,,,,,,,,,,,,,,,,FF,,,,,,,,7,1.033,,,,,,,,,,,,,,,,,,,,,,,,,,,,6,38,95,1,0,0,response1disk,1,5,-11,1,0,0,rectangle,5,-11,1,0,0,4,7,"[293,322,133,179,87,316,258,78,106,286,147,45,79,124,141,235,273,67,236,229]",5,-11,1,0,0,0,185,22,22,5,1,,,,,,,,,,,,,,,,,,,,,
,,,,,,,,,,,,,,,,,,,,,,,,,,,,,,,,,,,,,,,,,,,5b3937c57bc6be00010caf12,5fb5da77803f501d7b68b129,2020-11-18_20h38.33.652,Colour_Similarity_Experiment,2020.1.2,Linux x86_64,60,5fb5945709dec70f2d595766,,,,,,,,,,,,,,,,,,,,PF,,,,,,,,6,1.467,,,,,,,,,,,,,,,,,,,,,,,,,,,,5,83,43,1,0,0,response1disk,9,9,4,1,0,0,rectangle,9,4,1,0,0,4,1,"[293,322,133,179,87,316,258,78,106,286,147,45,79,124,141,235,273,67,236,229]",9,4,1,0,0,0,186,23,23,136,1,,,,,,,,,,,,,,,,,,,,,
,,,,,,,,,,,,,,,,,,,,,,,,,,,,,,,,,,,,,,,,,,,5b3937c57bc6be00010caf12,5fb5da77803f501d7b68b129,2020-11-18_20h38.33.652,Colour_Similarity_Experiment,2020.1.2,Linux x86_64,60,5fb5945709dec70f2d595766,,,,,,,,,,,,,,,,,,,,FF,,,,,,,,6,1.584,,,,,,,,,,,,,,,,,,,,,,,,,,,,9,76,56,1,0,0,response1disk,6,3,-5,1,0,0,rectangle,3,-5,1,0,0,4,1,"[293,322,133,179,87,316,258,78,106,286,147,45,79,124,141,235,273,67,236,229]",3,-5,1,0,0,0,187,24,24,117,1,,,,,,,,,,,,,,,,,,,,,
,,,,,,,,,,,,,,,,,,,,,,,,,,,,,,,,,,,,,,,,,,,5b3937c57bc6be00010caf12,5fb5da77803f501d7b68b129,2020-11-18_20h38.33.652,Colour_Similarity_Experiment,2020.1.2,Linux x86_64,60,5fb5945709dec70f2d595766,,,,,,,,,,,,,,,,,,,,FF,,,,,,,,4,1.803,,,,,,,,,,,,,,,,,,,,,,,,,,,,1,39,-94,1,0,0,response3disk,9,21,1,1,0,0,rectangle,21,1,1,0,0,4,0,"[293,322,133,179,87,316,258,78,106,286,147,45,79,124,141,235,273,67,236,229]",21,1,1,0,0,0,188,25,25,123,1,,,,,,,,,,,,,,,,,,,,,
,,,,,,,,,,,,,,,,,,,,,,,,,,,,,,,,,,,,,,,,,,,5b3937c57bc6be00010caf12,5fb5da77803f501d7b68b129,2020-11-18_20h38.33.652,Colour_Similarity_Experiment,2020.1.2,Linux x86_64,60,5fb5945709dec70f2d595766,,,,,,,,,,,,,,,,,,,,PF,,,,,,,,7,1.523,,,,,,,,,,,,,,,,,,,,,,,,,,,,7,45,93,1,0,0,response1disk,1,1,5,1,0,0,rectangle,1,5,1,0,0,4,7,"[293,322,133,179,87,316,258,78,106,286,147,45,79,124,141,235,273,67,236,229]",1,5,1,0,0,0,189,26,26,53,1,,,,,,,,,,,,,,,,,,,,,
,,,,,,,,,,,,,,,,,,,,,,,,,,,,,,,,,,,,,,,,,,,5b3937c57bc6be00010caf12,5fb5da77803f501d7b68b129,2020-11-18_20h38.33.652,Colour_Similarity_Experiment,2020.1.2,Linux x86_64,60,5fb5945709dec70f2d595766,,,,,,,,,,,,,,,,,,,,FF,,,,,,,,7,1.402,,,,,,,,,,,,,,,,,,,,,,,,,,,,6,35,75,1,0,0,response1disk,3,13,8,1,0,0,rectangle,13,8,1,0,0,4,7,"[293,322,133,179,87,316,258,78,106,286,147,45,79,124,141,235,273,67,236,229]",13,8,1,0,0,0,190,27,27,21,1,,,,,,,,,,,,,,,,,,,,,
,,,,,,,,,,,,,,,,,,,,,,,,,,,,,,,,,,,,,,,,,,,5b3937c57bc6be00010caf12,5fb5da77803f501d7b68b129,2020-11-18_20h38.33.652,Colour_Similarity_Experiment,2020.1.2,Linux x86_64,60,5fb5945709dec70f2d595766,,,,,,,,,,,,,,,,,,,,PF,,,,,,,,5,2.016,,,,,,,,,,,,,,,,,,,,,,,,,,,,4,71,-35,1,0,0,response3disk,5,11,0,1,0,0,rectangle,11,0,1,0,0,4,2,"[293,322,133,179,87,316,258,78,106,286,147,45,79,124,141,235,273,67,236,229]",11,0,1,0,0,0,191,28,28,49,1,,,,,,,,,,,,,,,,,,,,,
,,,,,,,,,,,,,,,,,,,,,,,,,,,,,,,,,,,,,,,,,,,5b3937c57bc6be00010caf12,5fb5da77803f501d7b68b129,2020-11-18_20h38.33.652,Colour_Similarity_Experiment,2020.1.2,Linux x86_64,60,5fb5945709dec70f2d595766,,,,,,,,,,,,,,,,,,,,FF,,,,,,,,7,1.301,,,,,,,,,,,,,,,,,,,,,,,,,,,,8,31,72,1,0,0,response1disk,4,10,12,1,0,0,rectangle,10,12,1,0,0,4,6,"[293,322,133,179,87,316,258,78,106,286,147,45,79,124,141,235,273,67,236,229]",10,12,1,0,0,0,192,29,29,88,1,,,,,,,,,,,,,,,,,,,,,
,,,,,,,,,,,,,,,,,,,,,,,,,,,,,,,,,,,,,,,,,,,5b3937c57bc6be00010caf12,5fb5da77803f501d7b68b129,2020-11-18_20h38.33.652,Colour_Similarity_Experiment,2020.1.2,Linux x86_64,60,5fb5945709dec70f2d595766,,,,,,,,,,,,,,,,,,,,PF,,,,,,,,5,1.701,,,,,,,,,,,,,,,,,,,,,,,,,,,,6,59,-22,1,0,0,response3disk,8,14,5,1,0,0,rectangle,14,5,1,0,0,4,0,"[293,322,133,179,87,316,258,78,106,286,147,45,79,124,141,235,273,67,236,229]",14,5,1,0,0,0,193,30,30,64,1,,,,,,,,,,,,,,,,,,,,,
,,,,,,,,,,,,,,,,,,,,,,,,,,,,,,,,,,,,,,,,,,,5b3937c57bc6be00010caf12,5fb5da77803f501d7b68b129,2020-11-18_20h38.33.652,Colour_Similarity_Experiment,2020.1.2,Linux x86_64,60,5fb5945709dec70f2d595766,,,,,,,,,,,,,,,,,,,,PF,,,,,,,,7,1.411,,,,,,,,,,,,,,,,,,,,,,,,,,,,1,46,80,1,0,0,response1disk,4,-6,-1,1,0,0,rectangle,-6,-1,1,0,0,4,3,"[293,322,133,179,87,316,258,78,106,286,147,45,79,124,141,235,273,67,236,229]",-6,-1,1,0,0,0,194,31,31,139,1,,,,,,,,,,,,,,,,,,,,,
,,,,,,,,,,,,,,,,,,,,,,,,,,,,,,,,,,,,,,,,,,,5b3937c57bc6be00010caf12,5fb5da77803f501d7b68b129,2020-11-18_20h38.33.652,Colour_Similarity_Experiment,2020.1.2,Linux x86_64,60,5fb5945709dec70f2d595766,,,,,,,,,,,,,,,,,,,,PF,,,,,,,,7,1.413,,,,,,,,,,,,,,,,,,,,,,,,,,,,8,48,104,1,0,0,response1disk,4,3,5,1,0,0,rectangle,3,5,1,0,0,4,4,"[293,322,133,179,87,316,258,78,106,286,147,45,79,124,141,235,273,67,236,229]",3,5,1,0,0,0,195,32,32,78,1,,,,,,,,,,,,,,,,,,,,,
,,,,,,,,,,,,,,,,,,,,,,,,,,,,,,,,,,,,,,,,,,,5b3937c57bc6be00010caf12,5fb5da77803f501d7b68b129,2020-11-18_20h38.33.652,Colour_Similarity_Experiment,2020.1.2,Linux x86_64,60,5fb5945709dec70f2d595766,,,,,,,,,,,,,,,,,,,,FF,,,,,,,,7,1.315,,,,,,,,,,,,,,,,,,,,,,,,,,,,2,58,90,1,0,0,response1disk,4,9,3,1,0,0,rectangle,9,3,1,0,0,4,7,"[293,322,133,179,87,316,258,78,106,286,147,45,79,124,141,235,273,67,236,229]",9,3,1,0,0,0,196,33,33,145,1,,,,,,,,,,,,,,,,,,,,,
,,,,,,,,,,,,,,,,,,,,,,,,,,,,,,,,,,,,,,,,,,,5b3937c57bc6be00010caf12,5fb5da77803f501d7b68b129,2020-11-18_20h38.33.652,Colour_Similarity_Experiment,2020.1.2,Linux x86_64,60,5fb5945709dec70f2d595766,,,,,,,,,,,,,,,,,,,,PF,,,,,,,,7,1.569,,,,,,,,,,,,,,,,,,,,,,,,,,,,9,49,87,1,0,0,response1disk,2,-5,1,1,0,0,rectangle,-5,1,1,0,0,4,7,"[293,322,133,179,87,316,258,78,106,286,147,45,79,124,141,235,273,67,236,229]",-5,1,1,0,0,0,197,34,34,157,1,,,,,,,,,,,,,,,,,,,,,
,,,,,,,,,,,,,,,,,,,,,,,,,,,,,,,,,,,,,,,,,,,5b3937c57bc6be00010caf12,5fb5da77803f501d7b68b129,2020-11-18_20h38.33.652,Colour_Similarity_Experiment,2020.1.2,Linux x86_64,60,5fb5945709dec70f2d595766,,,,,,,,,,,,,,,,,,,,PF,,,,,,,,1,1.359,,,,,,,,,,,,,,,,,,,,,,,,,,,,6,-74,48,1,0,0,response7disk,5,-15,-1,1,0,0,rectangle,-15,-1,1,0,0,4,3,"[293,322,133,179,87,316,258,78,106,286,147,45,79,124,141,235,273,67,236,229]",-15,-1,1,0,0,0,198,35,35,59,1,,,,,,,,,,,,,,,,,,,,,
,,,,,,,,,,,,,,,,,,,,,,,,,,,,,,,,,,,,,,,,,,,5b3937c57bc6be00010caf12,5fb5da77803f501d7b68b129,2020-11-18_20h38.33.652,Colour_Similarity_Experiment,2020.1.2,Linux x86_64,60,5fb5945709dec70f2d595766,,,,,,,,,,,,,,,,,,,,FF,,,,,,,,7,1.001,,,,,,,,,,,,,,,,,,,,,,,,,,,,9,38,81,1,0,0,response1disk,7,-3,2,1,0,0,rectangle,-3,2,1,0,0,4,1,"[293,322,133,179,87,316,258,78,106,286,147,45,79,124,141,235,273,67,236,229]",-3,2,1,0,0,0,199,36,36,100,1,,,,,,,,,,,,,,,,,,,,,
,,,,,,,,,,,,,,,,,,,,,,,,,,,,,,,,,,,,,,,,,,,5b3937c57bc6be00010caf12,5fb5da77803f501d7b68b129,2020-11-18_20h38.33.652,Colour_Similarity_Experiment,2020.1.2,Linux x86_64,60,5fb5945709dec70f2d595766,,,,,,,,,,,,,,,,,,,,FF,,,,,,,,7,1.395,,,,,,,,,,,,,,,,,,,,,,,,,,,,3,27,85,1,0,0,response1disk,8,2,0,1,0,0,rectangle,2,0,1,0,0,4,6,"[293,322,133,179,87,316,258,78,106,286,147,45,79,124,141,235,273,67,236,229]",2,0,1,0,0,0,200,37,37,44,1,,,,,,,,,,,,,,,,,,,,,
,,,,,,,,,,,,,,,,,,,,,,,,,,,,,,,,,,,,,,,,,,,5b3937c57bc6be00010caf12,5fb5da77803f501d7b68b129,2020-11-18_20h38.33.652,Colour_Similarity_Experiment,2020.1.2,Linux x86_64,60,5fb5945709dec70f2d595766,,,,,,,,,,,,,,,,,,,,PF,,,,,,,,6,1.646,,,,,,,,,,,,,,,,,,,,,,,,,,,,9,69,31,1,0,0,response1disk,7,11,5,1,0,0,rectangle,11,5,1,0,0,4,4,"[293,322,133,179,87,316,258,78,106,286,147,45,79,124,141,235,273,67,236,229]",11,5,1,0,0,0,201,38,38,121,1,,,,,,,,,,,,,,,,,,,,,
,,,,,,,,,,,,,,,,,,,,,,,,,,,,,,,,,,,,,,,,,,,5b3937c57bc6be00010caf12,5fb5da77803f501d7b68b129,2020-11-18_20h38.33.652,Colour_Similarity_Experiment,2020.1.2,Linux x86_64,60,5fb5945709dec70f2d595766,,,,,,,,,,,,,,,,,,,,FF,,,,,,,,7,1.423,,,,,,,,,,,,,,,,,,,,,,,,,,,,4,49,73,1,0,0,response1disk,2,7,6,1,0,0,rectangle,7,6,1,0,0,4,1,"[293,322,133,179,87,316,258,78,106,286,147,45,79,124,141,235,273,67,236,229]",7,6,1,0,0,0,202,39,39,13,1,,,,,,,,,,,,,,,,,,,,,
,,,,,,,,,,,,,,,,,,,,,,,,,,,,,,,,,,,,,,,,,,,5b3937c57bc6be00010caf12,5fb5da77803f501d7b68b129,2020-11-18_20h38.33.652,Colour_Similarity_Experiment,2020.1.2,Linux x86_64,60,5fb5945709dec70f2d595766,,,,,,,,,,,,,,,,,,,,PF,,,,,,,,3,2.75,,,,,,,,,,,,,,,,,,,,,,,,,,,,6,-29,-87,1,0,0,response5disk,7,17,-1,1,0,0,rectangle,17,-1,1,0,0,4,6,"[293,322,133,179,87,316,258,78,106,286,147,45,79,124,141,235,273,67,236,229]",17,-1,1,0,0,0,203,40,40,50,1,,,,,,,,,,,,,,,,,,,,,
