key_resp.keys,key_resp.rt,key_resp_16.keys,key_resp_16.rt,key_resp_2.keys,key_resp_2.rt,X Scale,ratio_pxpermm,screen_size_x,screen_size_y,testsize,key_resp_3.keys,key_resp_3.rt,key_resp_4.keys,key_resp_4.rt,line_size,key_resp_5.keys,key_resp_5.rt,key_resp_6.keys,key_resp_6.rt,key_resp_8.keys,key_resp_8.rt,key_resp_7.keys,key_resp_7.rt,key_resp_12.keys,key_resp_12.rt,key_resp_11.keys,key_resp_11.rt,key_resp_18.keys,key_resp_18.rt,key_resp_21.keys,key_resp_21.rt,key_resp_13.keys,key_resp_13.rt,key_resp_19.keys,key_resp_19.rt,ballposx,viewer_distance,trials.thisRepN,trials.thisTrialN,trials.thisN,trials.thisIndex,trials.ran,participant,session,date,expName,psychopyVersion,OS,frameRate,study_id,viewerdistancecm,DVA_to_distance,radius_F,radius_P,r_F,R_P,key_resp_20.keys,key_resp_20.rt,key_resp_14.keys,key_resp_14.rt,key_resp_15.keys,key_resp_15.rt,key_resp_17.keys,key_resp_17.rt,key_resp_9.keys,key_resp_9.rt,key_resp_10.keys,key_resp_10.rt,Colour_1,Ecc,mouse_5.x,mouse_5.y,mouse_5.leftButton,mouse_5.midButton,mouse_5.rightButton,mouse_5.clicked_name,Colour_2,similarity,response_time,mouse_10.x,mouse_10.y,mouse_10.leftButton,mouse_10.midButton,mouse_10.rightButton,mouse_10.clicked_name,mouse_7.x,mouse_7.y,mouse_7.leftButton,mouse_7.midButton,mouse_7.rightButton,mouse_7.clicked_name,catchprac,catchnumberprac,mouse_6.x,mouse_6.y,mouse_6.leftButton,mouse_6.midButton,mouse_6.rightButton,mouse_6.clicked_name,duringprac.thisRepN,duringprac.thisTrialN,duringprac.thisN,duringprac.thisIndex,duringprac.ran,key_resp_22.keys,key_resp_22.rt,Colour1,mouse.x,mouse.y,mouse.leftButton,mouse.midButton,mouse.rightButton,mouse.clicked_name,Colour2,mouse_2.x,mouse_2.y,mouse_2.leftButton,mouse_2.midButton,mouse_2.rightButton,mouse_2.clicked_name,mouse_3.x,mouse_3.y,mouse_3.leftButton,mouse_3.midButton,mouse_3.rightButton,catchresponse,catchnumber,catchtrialorder,mouse_11.x,mouse_11.y,mouse_11.leftButton,mouse_11.midButton,mouse_11.rightButton,trials_2.thisRepN,trialnumber,trials_2.thisTrialN,trials_2.thisN,trials_2.thisIndex,trials_2.ran,mouse_3.clicked_name,mouse_11.clicked_name,trials_3.thisRepN,trials_3.thisTrialN,trials_3.thisN,trials_3.thisIndex,trials_3.ran,answer1,rt1,answer2,rt2,answer3,rt3,answer4,rt4,answer5,rt5,answer6,rt6,answer7,rt7
space,12.508625,space,25.98486,space,3.98268,31.9,3.19,428.2131661,240.7523511,1366,space,10.103815,space,31.446915,63.8,space,9.74889,space,6.09838,space,2.115145,space,4.96173,space,4.02592,space,8.84895,space,12.58162,space,14.625405,space,10.13288,return,4.629895,-59.421,791.0429494,0,0,0,0,1,5b99c0a6a9c8150001d33bbc,5fb5d99cb10d321e67cdf81e,2020-11-18_18h43.25.664,Colour_Similarity_Experiment,2020.1.2,Win32,60,5fb5945709dec70f2d595766,,,,,,,,,,,,,,,,,,,,,,,,,,,,,,,,,,,,,,,,,,,,,,,,,,,,,,,,,,,,,,,,,,,,,,,,,,,,,,,,,,,,,,,,,,,,,,,,,,,,,,,,,,,,,,
,,,,,,,,,,,,,,,,,,,,,,,,,,,,,,,,,,return,10.21556,-745.836,1687.320474,1,0,1,0,1,5b99c0a6a9c8150001d33bbc,5fb5d99cb10d321e67cdf81e,2020-11-18_18h43.25.664,Colour_Similarity_Experiment,2020.1.2,Win32,60,5fb5945709dec70f2d595766,,,,,,,,,,,,,,,,,,,,,,,,,,,,,,,,,,,,,,,,,,,,,,,,,,,,,,,,,,,,,,,,,,,,,,,,,,,,,,,,,,,,,,,,,,,,,,,,,,,,,,,,,,,,,,
,,,,,,,,,,,,,,,,,,,,,,,,,,,,,,,,,,return,8.527015,-534.789,1411.748578,2,0,2,0,1,5b99c0a6a9c8150001d33bbc,5fb5d99cb10d321e67cdf81e,2020-11-18_18h43.25.664,Colour_Similarity_Experiment,2020.1.2,Win32,60,5fb5945709dec70f2d595766,,,,,,,,,,,,,,,,,,,,,,,,,,,,,,,,,,,,,,,,,,,,,,,,,,,,,,,,,,,,,,,,,,,,,,,,,,,,,,,,,,,,,,,,,,,,,,,,,,,,,,,,,,,,,,
,,,,,,,,,,,,,,,,,,,,,,,,,,,,,,,,,,return,4.308345,-20.49,740.2092988,3,0,3,0,1,5b99c0a6a9c8150001d33bbc,5fb5d99cb10d321e67cdf81e,2020-11-18_18h43.25.664,Colour_Similarity_Experiment,2020.1.2,Win32,60,5fb5945709dec70f2d595766,,,,,,,,,,,,,,,,,,,,,,,,,,,,,,,,,,,,,,,,,,,,,,,,,,,,,,,,,,,,,,,,,,,,,,,,,,,,,,,,,,,,,,,,,,,,,,,,,,,,,,,,,,,,,,
,,,,,,,,,,,,,,,,,,,,,,,,,,,,,,,,,,return,4.16227,10.245,700.0774693,4,0,4,0,1,5b99c0a6a9c8150001d33bbc,5fb5d99cb10d321e67cdf81e,2020-11-18_18h43.25.664,Colour_Similarity_Experiment,2020.1.2,Win32,60,5fb5945709dec70f2d595766,,,,,,,,,,,,,,,,,,,,,,,,,,,,,,,,,,,,,,,,,,,,,,,,,,,,,,,,,,,,,,,,,,,,,,,,,,,,,,,,,,,,,,,,,,,,,,,,,,,,,,,,,,,,,,
,,,,,,,,,,,,,,,,,,,,,,,,,,,,,,,,,,,,,,,,,,,5b99c0a6a9c8150001d33bbc,5fb5d99cb10d321e67cdf81e,2020-11-18_18h43.25.664,Colour_Similarity_Experiment,2020.1.2,Win32,60,5fb5945709dec70f2d595766,107,18.67691279,89.36902772,595.7935181,59.57935181,268.1070832,space,3.678455,space,5.724435,space,59.920755,space,3.02937,space,2.157335,space,3.07294,6,PF,49,99.5,1,0,0,response1disk_5,2,7,4.561075,-8,6.5,1,0,0,rectangle_8,117,56.5,1,0,0,response1disk_7,6,6,-3,-2.5,1,0,0,rectangle_4,0,0,0,2,1,,,,,,,,,,,,,,,,,,,,,,,,,,,,,,,,,,,,,,,,,,,,,,,,,,,,,,,,
,,,,,,,,,,,,,,,,,,,,,,,,,,,,,,,,,,,,,,,,,,,5b99c0a6a9c8150001d33bbc,5fb5d99cb10d321e67cdf81e,2020-11-18_18h43.25.664,Colour_Similarity_Experiment,2020.1.2,Win32,60,5fb5945709dec70f2d595766,,,,,,,,,,,,,,,,,,,3,FF,-38,95.5,1,0,0,response7disk_5,4,0,11.84207,-8,5.5,1,0,0,rectangle_8,89,50.5,1,0,0,response1disk_7,6,6,3,3.5,1,0,0,rectangle_4,0,1,1,3,1,,,,,,,,,,,,,,,,,,,,,,,,,,,,,,,,,,,,,,,,,,,,,,,,,,,,,,,,
,,,,,,,,,,,,,,,,,,,,,,,,,,,,,,,,,,,,,,,,,,,5b99c0a6a9c8150001d33bbc,5fb5d99cb10d321e67cdf81e,2020-11-18_18h43.25.664,Colour_Similarity_Experiment,2020.1.2,Win32,60,5fb5945709dec70f2d595766,,,,,,,,,,,,,,,,,,,5,FF,82,24.5,1,0,0,response1disk_5,1,6,4.43495,-9,7.5,1,0,0,rectangle_8,-9,7.5,1,0,0,,,6,-9,7.5,1,0,0,,0,2,2,5,1,,,,,,,,,,,,,,,,,,,,,,,,,,,,,,,,,,,,,,,,,,,,,,,,,,,,,,,,
,,,,,,,,,,,,,,,,,,,,,,,,,,,,,,,,,,,,,,,,,,,5b99c0a6a9c8150001d33bbc,5fb5d99cb10d321e67cdf81e,2020-11-18_18h43.25.664,Colour_Similarity_Experiment,2020.1.2,Win32,60,5fb5945709dec70f2d595766,,,,,,,,,,,,,,,,,,,3,PF,29,-92.5,1,0,0,response3disk_5,6,4,3.566345,1,6.5,1,0,0,rectangle_8,1,6.5,1,0,0,,,6,1,6.5,1,0,0,,0,3,3,4,1,,,,,,,,,,,,,,,,,,,,,,,,,,,,,,,,,,,,,,,,,,,,,,,,,,,,,,,,
,,,,,,,,,,,,,,,,,,,,,,,,,,,,,,,,,,,,,,,,,,,5b99c0a6a9c8150001d33bbc,5fb5d99cb10d321e67cdf81e,2020-11-18_18h43.25.664,Colour_Similarity_Experiment,2020.1.2,Win32,60,5fb5945709dec70f2d595766,,,,,,,,,,,,,,,,,,,8,PF,90,-38.5,1,0,0,response3disk_5,2,5,5.782375,-3,1.5,1,0,0,rectangle_8,-3,1.5,1,0,0,,,6,-3,1.5,1,0,0,,0,4,4,6,1,,,,,,,,,,,,,,,,,,,,,,,,,,,,,,,,,,,,,,,,,,,,,,,,,,,,,,,,
,,,,,,,,,,,,,,,,,,,,,,,,,,,,,,,,,,,,,,,,,,,5b99c0a6a9c8150001d33bbc,5fb5d99cb10d321e67cdf81e,2020-11-18_18h43.25.664,Colour_Similarity_Experiment,2020.1.2,Win32,60,5fb5945709dec70f2d595766,,,,,,,,,,,,,,,,,,,6,FF,37,-93.5,1,0,0,response3disk_5,4,4,4.5633,6,4.5,1,0,0,rectangle_8,6,4.5,1,0,0,,,6,6,4.5,1,0,0,,0,5,5,0,1,,,,,,,,,,,,,,,,,,,,,,,,,,,,,,,,,,,,,,,,,,,,,,,,,,,,,,,,
,,,,,,,,,,,,,,,,,,,,,,,,,,,,,,,,,,,,,,,,,,,5b99c0a6a9c8150001d33bbc,5fb5d99cb10d321e67cdf81e,2020-11-18_18h43.25.664,Colour_Similarity_Experiment,2020.1.2,Win32,60,5fb5945709dec70f2d595766,,,,,,,,,,,,,,,,,,,4,PF,91,34.5,1,0,0,response1disk_5,8,6,3.000535,-2,1.5,1,0,0,rectangle_8,-2,1.5,1,0,0,,,6,-2,1.5,1,0,0,,0,6,6,1,1,,,,,,,,,,,,,,,,,,,,,,,,,,,,,,,,,,,,,,,,,,,,,,,,,,,,,,,,
,,,,,,,,,,,,,,,,,,,,,,,,,,,,,,,,,,,,,,,,,,,5b99c0a6a9c8150001d33bbc,5fb5d99cb10d321e67cdf81e,2020-11-18_18h43.25.664,Colour_Similarity_Experiment,2020.1.2,Win32,60,5fb5945709dec70f2d595766,,,,,,,,,,,,,,,,,,,,PF,,,,,,,,6,2.041635,,,,,,,,,,,,,,,,,,,,,,,,,,space,2.50667,9,71,28.5,1,0,0,response1disk,7,7,-4.5,1,0,0,rectangle,7,-4.5,1,0,0,,0,"[196,148,267,171,55,213,167,12,286,205,229,274,11,91,182,177,34,319,95,97]",7,-4.5,1,0,0,0,1,0,0,121,1,,,,,,,,,,,,,,,,,,,,,
,,,,,,,,,,,,,,,,,,,,,,,,,,,,,,,,,,,,,,,,,,,5b99c0a6a9c8150001d33bbc,5fb5d99cb10d321e67cdf81e,2020-11-18_18h43.25.664,Colour_Similarity_Experiment,2020.1.2,Win32,60,5fb5945709dec70f2d595766,,,,,,,,,,,,,,,,,,,,FF,,,,,,,,4,4.261985,,,,,,,,,,,,,,,,,,,,,,,,,,,,8,41,-93.5,1,0,0,response3disk,5,14,-3.5,1,0,0,rectangle,14,-3.5,1,0,0,,5,"[196,148,267,171,55,213,167,12,286,205,229,274,11,91,182,177,34,319,95,97]",14,-3.5,1,0,0,0,2,1,1,152,1,,,,,,,,,,,,,,,,,,,,,
,,,,,,,,,,,,,,,,,,,,,,,,,,,,,,,,,,,,,,,,,,,5b99c0a6a9c8150001d33bbc,5fb5d99cb10d321e67cdf81e,2020-11-18_18h43.25.664,Colour_Similarity_Experiment,2020.1.2,Win32,60,5fb5945709dec70f2d595766,,,,,,,,,,,,,,,,,,,,FF,,,,,,,,6,1.9867,,,,,,,,,,,,,,,,,,,,,,,,,,,,9,84,19.5,1,0,0,response1disk,7,11,-2.5,1,0,0,rectangle,11,-2.5,1,0,0,,2,"[196,148,267,171,55,213,167,12,286,205,229,274,11,91,182,177,34,319,95,97]",11,-2.5,1,0,0,0,3,2,2,100,1,,,,,,,,,,,,,,,,,,,,,
,,,,,,,,,,,,,,,,,,,,,,,,,,,,,,,,,,,,,,,,,,,5b99c0a6a9c8150001d33bbc,5fb5d99cb10d321e67cdf81e,2020-11-18_18h43.25.664,Colour_Similarity_Experiment,2020.1.2,Win32,60,5fb5945709dec70f2d595766,,,,,,,,,,,,,,,,,,,,PF,,,,,,,,0,2.17238,,,,,,,,,,,,,,,,,,,,,,,,,,,,5,-37,79.5,1,0,0,response7disk,5,3,-5.5,1,0,0,rectangle,3,-5.5,1,0,0,,6,"[196,148,267,171,55,213,167,12,286,205,229,274,11,91,182,177,34,319,95,97]",3,-5.5,1,0,0,0,4,3,3,94,1,,,,,,,,,,,,,,,,,,,,,
,,,,,,,,,,,,,,,,,,,,,,,,,,,,,,,,,,,,,,,,,,,5b99c0a6a9c8150001d33bbc,5fb5d99cb10d321e67cdf81e,2020-11-18_18h43.25.664,Colour_Similarity_Experiment,2020.1.2,Win32,60,5fb5945709dec70f2d595766,,,,,,,,,,,,,,,,,,,,FF,,,,,,,,3,2.15812,,,,,,,,,,,,,,,,,,,,,,,,,,,,6,-45,-85.5,1,0,0,response5disk,5,-2,4.5,1,0,0,rectangle,-2,4.5,1,0,0,,2,"[196,148,267,171,55,213,167,12,286,205,229,274,11,91,182,177,34,319,95,97]",-2,4.5,1,0,0,0,5,4,4,126,1,,,,,,,,,,,,,,,,,,,,,
,,,,,,,,,,,,,,,,,,,,,,,,,,,,,,,,,,,,,,,,,,,5b99c0a6a9c8150001d33bbc,5fb5d99cb10d321e67cdf81e,2020-11-18_18h43.25.664,Colour_Similarity_Experiment,2020.1.2,Win32,60,5fb5945709dec70f2d595766,,,,,,,,,,,,,,,,,,,,PF,,,,,,,,6,1.651825,,,,,,,,,,,,,,,,,,,,,,,,,,,,8,104,57.5,1,0,0,response1disk,2,-8,1.5,1,0,0,rectangle,-8,1.5,1,0,0,,1,"[196,148,267,171,55,213,167,12,286,205,229,274,11,91,182,177,34,319,95,97]",-8,1.5,1,0,0,0,6,5,5,83,1,,,,,,,,,,,,,,,,,,,,,
,,,,,,,,,,,,,,,,,,,,,,,,,,,,,,,,,,,,,,,,,,,5b99c0a6a9c8150001d33bbc,5fb5d99cb10d321e67cdf81e,2020-11-18_18h43.25.664,Colour_Similarity_Experiment,2020.1.2,Win32,60,5fb5945709dec70f2d595766,,,,,,,,,,,,,,,,,,,,FF,,,,,,,,4,1.384845,,,,,,,,,,,,,,,,,,,,,,,,,,,,1,36,-70.5,1,0,0,response3disk,3,4,-0.5,1,0,0,rectangle,4,-0.5,1,0,0,,4,"[196,148,267,171,55,213,167,12,286,205,229,274,11,91,182,177,34,319,95,97]",4,-0.5,1,0,0,0,7,6,6,99,1,,,,,,,,,,,,,,,,,,,,,
,,,,,,,,,,,,,,,,,,,,,,,,,,,,,,,,,,,,,,,,,,,5b99c0a6a9c8150001d33bbc,5fb5d99cb10d321e67cdf81e,2020-11-18_18h43.25.664,Colour_Similarity_Experiment,2020.1.2,Win32,60,5fb5945709dec70f2d595766,,,,,,,,,,,,,,,,,,,,PF,,,,,,,,7,1.73552,,,,,,,,,,,,,,,,,,,,,,,,,,,,4,53,70.5,1,0,0,response1disk,8,-5,3.5,1,0,0,rectangle,-5,3.5,1,0,0,,3,"[196,148,267,171,55,213,167,12,286,205,229,274,11,91,182,177,34,319,95,97]",-5,3.5,1,0,0,0,8,7,7,124,1,,,,,,,,,,,,,,,,,,,,,
,,,,,,,,,,,,,,,,,,,,,,,,,,,,,,,,,,,,,,,,,,,5b99c0a6a9c8150001d33bbc,5fb5d99cb10d321e67cdf81e,2020-11-18_18h43.25.664,Colour_Similarity_Experiment,2020.1.2,Win32,60,5fb5945709dec70f2d595766,,,,,,,,,,,,,,,,,,,,FF,,,,,,,,4,1.70768,,,,,,,,,,,,,,,,,,,,,,,,,,,,5,27,-84.5,1,0,0,response3disk,7,0,-0.5,1,0,0,rectangle,0,-0.5,1,0,0,,0,"[196,148,267,171,55,213,167,12,286,205,229,274,11,91,182,177,34,319,95,97]",0,-0.5,1,0,0,0,9,8,8,7,1,,,,,,,,,,,,,,,,,,,,,
,,,,,,,,,,,,,,,,,,,,,,,,,,,,,,,,,,,,,,,,,,,5b99c0a6a9c8150001d33bbc,5fb5d99cb10d321e67cdf81e,2020-11-18_18h43.25.664,Colour_Similarity_Experiment,2020.1.2,Win32,60,5fb5945709dec70f2d595766,,,,,,,,,,,,,,,,,,,,FF,,,,,,,,4,1.449085,,,,,,,,,,,,,,,,,,,,,,,,,,,,2,33,-82.5,1,0,0,response3disk,5,5,11.5,1,0,0,rectangle,5,11.5,1,0,0,,0,"[196,148,267,171,55,213,167,12,286,205,229,274,11,91,182,177,34,319,95,97]",5,11.5,1,0,0,0,10,9,9,80,1,,,,,,,,,,,,,,,,,,,,,
,,,,,,,,,,,,,,,,,,,,,,,,,,,,,,,,,,,,,,,,,,,5b99c0a6a9c8150001d33bbc,5fb5d99cb10d321e67cdf81e,2020-11-18_18h43.25.664,Colour_Similarity_Experiment,2020.1.2,Win32,60,5fb5945709dec70f2d595766,,,,,,,,,,,,,,,,,,,,FF,,,,,,,,0,3.064425,,,,,,,,,,,,,,,,,,,,,,,,,,,,4,-34,70.5,1,0,0,response7disk,4,1,7.5,1,0,0,rectangle,39,-87.5,1,0,0,4,4,"[196,148,267,171,55,213,167,12,286,205,229,274,11,91,182,177,34,319,95,97]",-4,-3.5,1,0,0,0,11,10,10,84,1,response3disk_3,rectangle,,,,,,,,,,,,,,,,,,,
,,,,,,,,,,,,,,,,,,,,,,,,,,,,,,,,,,,,,,,,,,,5b99c0a6a9c8150001d33bbc,5fb5d99cb10d321e67cdf81e,2020-11-18_18h43.25.664,Colour_Similarity_Experiment,2020.1.2,Win32,60,5fb5945709dec70f2d595766,,,,,,,,,,,,,,,,,,,,PF,,,,,,,,4,1.33733,,,,,,,,,,,,,,,,,,,,,,,,,,,,5,39,-83.5,1,0,0,response3disk,2,8,1.5,1,0,0,rectangle,55,-30.5,1,0,0,5,5,"[196,148,267,171,55,213,167,12,286,205,229,274,11,91,182,177,34,319,95,97]",2,0.5,1,0,0,0,12,11,11,129,1,response3disk_3,rectangle,,,,,,,,,,,,,,,,,,,
,,,,,,,,,,,,,,,,,,,,,,,,,,,,,,,,,,,,,,,,,,,5b99c0a6a9c8150001d33bbc,5fb5d99cb10d321e67cdf81e,2020-11-18_18h43.25.664,Colour_Similarity_Experiment,2020.1.2,Win32,60,5fb5945709dec70f2d595766,,,,,,,,,,,,,,,,,,,,PF,,,,,,,,7,1.557865,,,,,,,,,,,,,,,,,,,,,,,,,,,,1,62,89.5,1,0,0,response1disk,7,8,3.5,1,0,0,rectangle,8,3.5,1,0,0,5,7,"[196,148,267,171,55,213,167,12,286,205,229,274,11,91,182,177,34,319,95,97]",8,3.5,1,0,0,0,13,12,12,150,1,,,,,,,,,,,,,,,,,,,,,
,,,,,,,,,,,,,,,,,,,,,,,,,,,,,,,,,,,,,,,,,,,5b99c0a6a9c8150001d33bbc,5fb5d99cb10d321e67cdf81e,2020-11-18_18h43.25.664,Colour_Similarity_Experiment,2020.1.2,Win32,60,5fb5945709dec70f2d595766,,,,,,,,,,,,,,,,,,,,PF,,,,,,,,7,1.54951,,,,,,,,,,,,,,,,,,,,,,,,,,,,2,52,88.5,1,0,0,response1disk,7,19,5.5,1,0,0,rectangle,19,5.5,1,0,0,5,1,"[196,148,267,171,55,213,167,12,286,205,229,274,11,91,182,177,34,319,95,97]",19,5.5,1,0,0,0,14,13,13,107,1,,,,,,,,,,,,,,,,,,,,,
,,,,,,,,,,,,,,,,,,,,,,,,,,,,,,,,,,,,,,,,,,,5b99c0a6a9c8150001d33bbc,5fb5d99cb10d321e67cdf81e,2020-11-18_18h43.25.664,Colour_Similarity_Experiment,2020.1.2,Win32,60,5fb5945709dec70f2d595766,,,,,,,,,,,,,,,,,,,,PF,,,,,,,,0,1.6064,,,,,,,,,,,,,,,,,,,,,,,,,,,,7,-59,106.5,1,0,0,response7disk,7,7,6.5,1,0,0,rectangle,7,6.5,1,0,0,5,0,"[196,148,267,171,55,213,167,12,286,205,229,274,11,91,182,177,34,319,95,97]",7,6.5,1,0,0,0,15,14,14,51,1,,,,,,,,,,,,,,,,,,,,,
,,,,,,,,,,,,,,,,,,,,,,,,,,,,,,,,,,,,,,,,,,,5b99c0a6a9c8150001d33bbc,5fb5d99cb10d321e67cdf81e,2020-11-18_18h43.25.664,Colour_Similarity_Experiment,2020.1.2,Win32,60,5fb5945709dec70f2d595766,,,,,,,,,,,,,,,,,,,,FF,,,,,,,,7,1.3337,,,,,,,,,,,,,,,,,,,,,,,,,,,,7,47,69.5,1,0,0,response1disk,2,8,1.5,1,0,0,rectangle,8,1.5,1,0,0,5,0,"[196,148,267,171,55,213,167,12,286,205,229,274,11,91,182,177,34,319,95,97]",8,1.5,1,0,0,0,16,15,15,138,1,,,,,,,,,,,,,,,,,,,,,
,,,,,,,,,,,,,,,,,,,,,,,,,,,,,,,,,,,,,,,,,,,5b99c0a6a9c8150001d33bbc,5fb5d99cb10d321e67cdf81e,2020-11-18_18h43.25.664,Colour_Similarity_Experiment,2020.1.2,Win32,60,5fb5945709dec70f2d595766,,,,,,,,,,,,,,,,,,,,PF,,,,,,,,0,1.50161,,,,,,,,,,,,,,,,,,,,,,,,,,,,3,-36,86.5,1,0,0,response7disk,3,2,3.5,1,0,0,rectangle,2,3.5,1,0,0,5,0,"[196,148,267,171,55,213,167,12,286,205,229,274,11,91,182,177,34,319,95,97]",2,3.5,1,0,0,0,17,16,16,4,1,,,,,,,,,,,,,,,,,,,,,
,,,,,,,,,,,,,,,,,,,,,,,,,,,,,,,,,,,,,,,,,,,5b99c0a6a9c8150001d33bbc,5fb5d99cb10d321e67cdf81e,2020-11-18_18h43.25.664,Colour_Similarity_Experiment,2020.1.2,Win32,60,5fb5945709dec70f2d595766,,,,,,,,,,,,,,,,,,,,PF,,,,,,,,7,1.07647,,,,,,,,,,,,,,,,,,,,,,,,,,,,7,33,59.5,1,0,0,response1disk,1,3,-9.5,1,0,0,rectangle,3,-9.5,1,0,0,5,1,"[196,148,267,171,55,213,167,12,286,205,229,274,11,91,182,177,34,319,95,97]",3,-9.5,1,0,0,0,18,17,17,53,1,,,,,,,,,,,,,,,,,,,,,
,,,,,,,,,,,,,,,,,,,,,,,,,,,,,,,,,,,,,,,,,,,5b99c0a6a9c8150001d33bbc,5fb5d99cb10d321e67cdf81e,2020-11-18_18h43.25.664,Colour_Similarity_Experiment,2020.1.2,Win32,60,5fb5945709dec70f2d595766,,,,,,,,,,,,,,,,,,,,FF,,,,,,,,3,1.781235,,,,,,,,,,,,,,,,,,,,,,,,,,,,9,-46,-87.5,1,0,0,response5disk,8,-7,1.5,1,0,0,rectangle,-7,1.5,1,0,0,5,0,"[196,148,267,171,55,213,167,12,286,205,229,274,11,91,182,177,34,319,95,97]",-7,1.5,1,0,0,0,19,18,18,6,1,,,,,,,,,,,,,,,,,,,,,
,,,,,,,,,,,,,,,,,,,,,,,,,,,,,,,,,,,,,,,,,,,5b99c0a6a9c8150001d33bbc,5fb5d99cb10d321e67cdf81e,2020-11-18_18h43.25.664,Colour_Similarity_Experiment,2020.1.2,Win32,60,5fb5945709dec70f2d595766,,,,,,,,,,,,,,,,,,,,FF,,,,,,,,3,1.41545,,,,,,,,,,,,,,,,,,,,,,,,,,,,8,-42,-61.5,1,0,0,response5disk,9,-8,-0.5,1,0,0,rectangle,-8,-0.5,1,0,0,5,0,"[196,148,267,171,55,213,167,12,286,205,229,274,11,91,182,177,34,319,95,97]",-8,-0.5,1,0,0,0,20,19,19,105,1,,,,,,,,,,,,,,,,,,,,,
,,,,,,,,,,,,,,,,,,,,,,,,,,,,,,,,,,,,,,,,,,,5b99c0a6a9c8150001d33bbc,5fb5d99cb10d321e67cdf81e,2020-11-18_18h43.25.664,Colour_Similarity_Experiment,2020.1.2,Win32,60,5fb5945709dec70f2d595766,,,,,,,,,,,,,,,,,,,,PF,,,,,,,,6,2.088605,,,,,,,,,,,,,,,,,,,,,,,,,,,,2,58,40.5,1,0,0,response1disk,8,15,-9.5,1,0,0,rectangle,15,-9.5,1,0,0,5,6,"[196,148,267,171,55,213,167,12,286,205,229,274,11,91,182,177,34,319,95,97]",15,-9.5,1,0,0,0,21,20,20,52,1,,,,,,,,,,,,,,,,,,,,,
,,,,,,,,,,,,,,,,,,,,,,,,,,,,,,,,,,,,,,,,,,,5b99c0a6a9c8150001d33bbc,5fb5d99cb10d321e67cdf81e,2020-11-18_18h43.25.664,Colour_Similarity_Experiment,2020.1.2,Win32,60,5fb5945709dec70f2d595766,,,,,,,,,,,,,,,,,,,,FF,,,,,,,,7,1.690485,,,,,,,,,,,,,,,,,,,,,,,,,,,,1,59,64.5,1,0,0,response1disk,6,30,-1.5,1,0,0,rectangle,30,-1.5,1,0,0,5,3,"[196,148,267,171,55,213,167,12,286,205,229,274,11,91,182,177,34,319,95,97]",30,-1.5,1,0,0,0,22,21,21,58,1,,,,,,,,,,,,,,,,,,,,,
,,,,,,,,,,,,,,,,,,,,,,,,,,,,,,,,,,,,,,,,,,,5b99c0a6a9c8150001d33bbc,5fb5d99cb10d321e67cdf81e,2020-11-18_18h43.25.664,Colour_Similarity_Experiment,2020.1.2,Win32,60,5fb5945709dec70f2d595766,,,,,,,,,,,,,,,,,,,,PF,,,,,,,,5,1.12364,,,,,,,,,,,,,,,,,,,,,,,,,,,,9,45,-34.5,1,0,0,response3disk,3,11,-0.5,1,0,0,rectangle,11,-0.5,1,0,0,5,1,"[196,148,267,171,55,213,167,12,286,205,229,274,11,91,182,177,34,319,95,97]",11,-0.5,1,0,0,0,23,22,22,119,1,,,,,,,,,,,,,,,,,,,,,
,,,,,,,,,,,,,,,,,,,,,,,,,,,,,,,,,,,,,,,,,,,5b99c0a6a9c8150001d33bbc,5fb5d99cb10d321e67cdf81e,2020-11-18_18h43.25.664,Colour_Similarity_Experiment,2020.1.2,Win32,60,5fb5945709dec70f2d595766,,,,,,,,,,,,,,,,,,,,FF,,,,,,,,2,1.40687,,,,,,,,,,,,,,,,,,,,,,,,,,,,1,-51,-37.5,1,0,0,response5disk,9,-6,2.5,1,0,0,rectangle,-6,2.5,1,0,0,5,5,"[196,148,267,171,55,213,167,12,286,205,229,274,11,91,182,177,34,319,95,97]",-6,2.5,1,0,0,0,24,23,23,123,1,,,,,,,,,,,,,,,,,,,,,
,,,,,,,,,,,,,,,,,,,,,,,,,,,,,,,,,,,,,,,,,,,5b99c0a6a9c8150001d33bbc,5fb5d99cb10d321e67cdf81e,2020-11-18_18h43.25.664,Colour_Similarity_Experiment,2020.1.2,Win32,60,5fb5945709dec70f2d595766,,,,,,,,,,,,,,,,,,,,PF,,,,,,,,4,1.968055,,,,,,,,,,,,,,,,,,,,,,,,,,,,2,42,-94.5,1,0,0,response3disk,3,20,-0.5,1,0,0,rectangle,20,-0.5,1,0,0,5,1,"[196,148,267,171,55,213,167,12,286,205,229,274,11,91,182,177,34,319,95,97]",20,-0.5,1,0,0,0,25,24,24,69,1,,,,,,,,,,,,,,,,,,,,,
,,,,,,,,,,,,,,,,,,,,,,,,,,,,,,,,,,,,,,,,,,,5b99c0a6a9c8150001d33bbc,5fb5d99cb10d321e67cdf81e,2020-11-18_18h43.25.664,Colour_Similarity_Experiment,2020.1.2,Win32,60,5fb5945709dec70f2d595766,,,,,,,,,,,,,,,,,,,,FF,,,,,,,,0,1.152225,,,,,,,,,,,,,,,,,,,,,,,,,,,,3,-40,86.5,1,0,0,response7disk,3,1,8.5,1,0,0,rectangle,1,8.5,1,0,0,5,4,"[196,148,267,171,55,213,167,12,286,205,229,274,11,91,182,177,34,319,95,97]",1,8.5,1,0,0,0,26,25,25,68,1,,,,,,,,,,,,,,,,,,,,,
,,,,,,,,,,,,,,,,,,,,,,,,,,,,,,,,,,,,,,,,,,,5b99c0a6a9c8150001d33bbc,5fb5d99cb10d321e67cdf81e,2020-11-18_18h43.25.664,Colour_Similarity_Experiment,2020.1.2,Win32,60,5fb5945709dec70f2d595766,,,,,,,,,,,,,,,,,,,,PF,,,,,,,,2,1.458385,,,,,,,,,,,,,,,,,,,,,,,,,,,,4,-56,-28.5,1,0,0,response5disk,5,5,-0.5,1,0,0,rectangle,5,-0.5,1,0,0,5,0,"[196,148,267,171,55,213,167,12,286,205,229,274,11,91,182,177,34,319,95,97]",5,-0.5,1,0,0,0,27,26,26,49,1,,,,,,,,,,,,,,,,,,,,,
,,,,,,,,,,,,,,,,,,,,,,,,,,,,,,,,,,,,,,,,,,,5b99c0a6a9c8150001d33bbc,5fb5d99cb10d321e67cdf81e,2020-11-18_18h43.25.664,Colour_Similarity_Experiment,2020.1.2,Win32,60,5fb5945709dec70f2d595766,,,,,,,,,,,,,,,,,,,,PF,,,,,,,,5,1.67216,,,,,,,,,,,,,,,,,,,,,,,,,,,,6,64,-42.5,1,0,0,response3disk,3,22,0.5,1,0,0,rectangle,22,0.5,1,0,0,5,5,"[196,148,267,171,55,213,167,12,286,205,229,274,11,91,182,177,34,319,95,97]",22,0.5,1,0,0,0,28,27,27,26,1,,,,,,,,,,,,,,,,,,,,,
,,,,,,,,,,,,,,,,,,,,,,,,,,,,,,,,,,,,,,,,,,,5b99c0a6a9c8150001d33bbc,5fb5d99cb10d321e67cdf81e,2020-11-18_18h43.25.664,Colour_Similarity_Experiment,2020.1.2,Win32,60,5fb5945709dec70f2d595766,,,,,,,,,,,,,,,,,,,,PF,,,,,,,,5,1.43212,,,,,,,,,,,,,,,,,,,,,,,,,,,,4,78,-47.5,1,0,0,response3disk,6,6,8.5,1,0,0,rectangle,6,8.5,1,0,0,5,4,"[196,148,267,171,55,213,167,12,286,205,229,274,11,91,182,177,34,319,95,97]",6,8.5,1,0,0,0,29,28,28,120,1,,,,,,,,,,,,,,,,,,,,,
,,,,,,,,,,,,,,,,,,,,,,,,,,,,,,,,,,,,,,,,,,,5b99c0a6a9c8150001d33bbc,5fb5d99cb10d321e67cdf81e,2020-11-18_18h43.25.664,Colour_Similarity_Experiment,2020.1.2,Win32,60,5fb5945709dec70f2d595766,,,,,,,,,,,,,,,,,,,,PF,,,,,,,,4,2.497755,,,,,,,,,,,,,,,,,,,,,,,,,,,,8,48,-65.5,1,0,0,response3disk,7,10,-8.5,1,0,0,rectangle,10,-8.5,1,0,0,5,2,"[196,148,267,171,55,213,167,12,286,205,229,274,11,91,182,177,34,319,95,97]",10,-8.5,1,0,0,0,30,29,29,23,1,,,,,,,,,,,,,,,,,,,,,
,,,,,,,,,,,,,,,,,,,,,,,,,,,,,,,,,,,,,,,,,,,5b99c0a6a9c8150001d33bbc,5fb5d99cb10d321e67cdf81e,2020-11-18_18h43.25.664,Colour_Similarity_Experiment,2020.1.2,Win32,60,5fb5945709dec70f2d595766,,,,,,,,,,,,,,,,,,,,PF,,,,,,,,6,1.73708,,,,,,,,,,,,,,,,,,,,,,,,,,,,5,52,39.5,1,0,0,response1disk,8,7,4.5,1,0,0,rectangle,7,4.5,1,0,0,5,5,"[196,148,267,171,55,213,167,12,286,205,229,274,11,91,182,177,34,319,95,97]",7,4.5,1,0,0,0,31,30,30,149,1,,,,,,,,,,,,,,,,,,,,,
,,,,,,,,,,,,,,,,,,,,,,,,,,,,,,,,,,,,,,,,,,,5b99c0a6a9c8150001d33bbc,5fb5d99cb10d321e67cdf81e,2020-11-18_18h43.25.664,Colour_Similarity_Experiment,2020.1.2,Win32,60,5fb5945709dec70f2d595766,,,,,,,,,,,,,,,,,,,,PF,,,,,,,,3,1.392995,,,,,,,,,,,,,,,,,,,,,,,,,,,,1,-57,-78.5,1,0,0,response5disk,2,0,-5.5,1,0,0,rectangle,0,-5.5,1,0,0,5,7,"[196,148,267,171,55,213,167,12,286,205,229,274,11,91,182,177,34,319,95,97]",0,-5.5,1,0,0,0,32,31,31,24,1,,,,,,,,,,,,,,,,,,,,,
,,,,,,,,,,,,,,,,,,,,,,,,,,,,,,,,,,,,,,,,,,,5b99c0a6a9c8150001d33bbc,5fb5d99cb10d321e67cdf81e,2020-11-18_18h43.25.664,Colour_Similarity_Experiment,2020.1.2,Win32,60,5fb5945709dec70f2d595766,,,,,,,,,,,,,,,,,,,,PF,,,,,,,,6,1.445935,,,,,,,,,,,,,,,,,,,,,,,,,,,,4,79,44.5,1,0,0,response1disk,9,12,-4.5,1,0,0,rectangle,12,-4.5,1,0,0,5,5,"[196,148,267,171,55,213,167,12,286,205,229,274,11,91,182,177,34,319,95,97]",12,-4.5,1,0,0,0,33,32,32,75,1,,,,,,,,,,,,,,,,,,,,,
,,,,,,,,,,,,,,,,,,,,,,,,,,,,,,,,,,,,,,,,,,,5b99c0a6a9c8150001d33bbc,5fb5d99cb10d321e67cdf81e,2020-11-18_18h43.25.664,Colour_Similarity_Experiment,2020.1.2,Win32,60,5fb5945709dec70f2d595766,,,,,,,,,,,,,,,,,,,,FF,,,,,,,,0,1.409055,,,,,,,,,,,,,,,,,,,,,,,,,,,,2,-38,73.5,1,0,0,response7disk,2,-6,-2.5,1,0,0,rectangle,24,-103.5,1,0,0,4,4,"[196,148,267,171,55,213,167,12,286,205,229,274,11,91,182,177,34,319,95,97]",1,8.5,1,0,0,0,34,33,33,142,1,response3disk_3,rectangle,,,,,,,,,,,,,,,,,,,
,,,,,,,,,,,,,,,,,,,,,,,,,,,,,,,,,,,,,,,,,,,5b99c0a6a9c8150001d33bbc,5fb5d99cb10d321e67cdf81e,2020-11-18_18h43.25.664,Colour_Similarity_Experiment,2020.1.2,Win32,60,5fb5945709dec70f2d595766,,,,,,,,,,,,,,,,,,,,FF,,,,,,,,3,3.204835,,,,,,,,,,,,,,,,,,,,,,,,,,,,2,-24,-96.5,1,0,0,response5disk,1,5,-5.5,1,0,0,rectangle,5,-5.5,1,0,0,4,4,"[196,148,267,171,55,213,167,12,286,205,229,274,11,91,182,177,34,319,95,97]",5,-5.5,1,0,0,0,35,34,34,85,1,,,,,,,,,,,,,,,,,,,,,
,,,,,,,,,,,,,,,,,,,,,,,,,,,,,,,,,,,,,,,,,,,5b99c0a6a9c8150001d33bbc,5fb5d99cb10d321e67cdf81e,2020-11-18_18h43.25.664,Colour_Similarity_Experiment,2020.1.2,Win32,60,5fb5945709dec70f2d595766,,,,,,,,,,,,,,,,,,,,FF,,,,,,,,6,2.75796,,,,,,,,,,,,,,,,,,,,,,,,,,,,4,68,37.5,1,0,0,response1disk,2,-2,2.5,1,0,0,rectangle,-2,2.5,1,0,0,4,3,"[196,148,267,171,55,213,167,12,286,205,229,274,11,91,182,177,34,319,95,97]",-2,2.5,1,0,0,0,36,35,35,13,1,,,,,,,,,,,,,,,,,,,,,
,,,,,,,,,,,,,,,,,,,,,,,,,,,,,,,,,,,,,,,,,,,5b99c0a6a9c8150001d33bbc,5fb5d99cb10d321e67cdf81e,2020-11-18_18h43.25.664,Colour_Similarity_Experiment,2020.1.2,Win32,60,5fb5945709dec70f2d595766,,,,,,,,,,,,,,,,,,,,PF,,,,,,,,3,1.389265,,,,,,,,,,,,,,,,,,,,,,,,,,,,1,-36,-96.5,1,0,0,response5disk,8,-8,-1.5,1,0,0,rectangle,-8,-1.5,1,0,0,4,2,"[196,148,267,171,55,213,167,12,286,205,229,274,11,91,182,177,34,319,95,97]",-8,-1.5,1,0,0,0,37,36,36,65,1,,,,,,,,,,,,,,,,,,,,,
,,,,,,,,,,,,,,,,,,,,,,,,,,,,,,,,,,,,,,,,,,,5b99c0a6a9c8150001d33bbc,5fb5d99cb10d321e67cdf81e,2020-11-18_18h43.25.664,Colour_Similarity_Experiment,2020.1.2,Win32,60,5fb5945709dec70f2d595766,,,,,,,,,,,,,,,,,,,,PF,,,,,,,,7,1.16414,,,,,,,,,,,,,,,,,,,,,,,,,,,,4,62,74.5,1,0,0,response1disk,1,-4,7.5,1,0,0,rectangle,-4,7.5,1,0,0,4,1,"[196,148,267,171,55,213,167,12,286,205,229,274,11,91,182,177,34,319,95,97]",-4,7.5,1,0,0,0,38,37,37,115,1,,,,,,,,,,,,,,,,,,,,,
,,,,,,,,,,,,,,,,,,,,,,,,,,,,,,,,,,,,,,,,,,,5b99c0a6a9c8150001d33bbc,5fb5d99cb10d321e67cdf81e,2020-11-18_18h43.25.664,Colour_Similarity_Experiment,2020.1.2,Win32,60,5fb5945709dec70f2d595766,,,,,,,,,,,,,,,,,,,,PF,,,,,,,,0,1.167715,,,,,,,,,,,,,,,,,,,,,,,,,,,,2,-43,75.5,1,0,0,response7disk,2,20,-3.5,1,0,0,rectangle,20,-3.5,1,0,0,4,0,"[196,148,267,171,55,213,167,12,286,205,229,274,11,91,182,177,34,319,95,97]",20,-3.5,1,0,0,0,39,38,38,14,1,,,,,,,,,,,,,,,,,,,,,
,,,,,,,,,,,,,,,,,,,,,,,,,,,,,,,,,,,,,,,,,,,5b99c0a6a9c8150001d33bbc,5fb5d99cb10d321e67cdf81e,2020-11-18_18h43.25.664,Colour_Similarity_Experiment,2020.1.2,Win32,60,5fb5945709dec70f2d595766,,,,,,,,,,,,,,,,,,,,PF,,,,,,,,3,1.066555,,,,,,,,,,,,,,,,,,,,,,,,,,,,6,-27,-63.5,1,0,0,response5disk,5,-13,1.5,1,0,0,rectangle,-13,1.5,1,0,0,4,6,"[196,148,267,171,55,213,167,12,286,205,229,274,11,91,182,177,34,319,95,97]",-13,1.5,1,0,0,0,40,39,39,59,1,,,,,,,,,,,,,,,,,,,,,
,,,,,,,,,,,,,,,,,,,,,,,,,,,,,,,,,,,,,,,,,,,5b99c0a6a9c8150001d33bbc,5fb5d99cb10d321e67cdf81e,2020-11-18_18h43.25.664,Colour_Similarity_Experiment,2020.1.2,Win32,60,5fb5945709dec70f2d595766,,,,,,,,,,,,,,,,,,,,FF,,,,,,,,6,1.10367,,,,,,,,,,,,,,,,,,,,,,,,,,,,9,46,39.5,1,0,0,response1disk,5,15,-2.5,1,0,0,rectangle,15,-2.5,1,0,0,4,6,"[196,148,267,171,55,213,167,12,286,205,229,274,11,91,182,177,34,319,95,97]",15,-2.5,1,0,0,0,41,40,40,128,1,,,,,,,,,,,,,,,,,,,,,
,,,,,,,,,,,,,,,,,,,,,,,,,,,,,,,,,,,,,,,,,,,5b99c0a6a9c8150001d33bbc,5fb5d99cb10d321e67cdf81e,2020-11-18_18h43.25.664,Colour_Similarity_Experiment,2020.1.2,Win32,60,5fb5945709dec70f2d595766,,,,,,,,,,,,,,,,,,,,FF,,,,,,,,4,1.669315,,,,,,,,,,,,,,,,,,,,,,,,,,,,1,44,-78.5,1,0,0,response3disk,8,9,6.5,1,0,0,rectangle,9,6.5,1,0,0,4,1,"[196,148,267,171,55,213,167,12,286,205,229,274,11,91,182,177,34,319,95,97]",9,6.5,1,0,0,0,42,41,41,27,1,,,,,,,,,,,,,,,,,,,,,
,,,,,,,,,,,,,,,,,,,,,,,,,,,,,,,,,,,,,,,,,,,5b99c0a6a9c8150001d33bbc,5fb5d99cb10d321e67cdf81e,2020-11-18_18h43.25.664,Colour_Similarity_Experiment,2020.1.2,Win32,60,5fb5945709dec70f2d595766,,,,,,,,,,,,,,,,,,,,FF,,,,,,,,5,3.3329,,,,,,,,,,,,,,,,,,,,,,,,,,,,3,90,-43.5,1,0,0,response3disk,1,-22,8.5,1,0,0,rectangle,-22,8.5,1,0,0,4,1,"[196,148,267,171,55,213,167,12,286,205,229,274,11,91,182,177,34,319,95,97]",-22,8.5,1,0,0,0,43,42,42,125,1,,,,,,,,,,,,,,,,,,,,,
,,,,,,,,,,,,,,,,,,,,,,,,,,,,,,,,,,,,,,,,,,,5b99c0a6a9c8150001d33bbc,5fb5d99cb10d321e67cdf81e,2020-11-18_18h43.25.664,Colour_Similarity_Experiment,2020.1.2,Win32,60,5fb5945709dec70f2d595766,,,,,,,,,,,,,,,,,,,,FF,,,,,,,,2,1.346045,,,,,,,,,,,,,,,,,,,,,,,,,,,,5,-60,-31.5,1,0,0,response5disk,3,0,-0.5,1,0,0,rectangle,0,-0.5,1,0,0,4,2,"[196,148,267,171,55,213,167,12,286,205,229,274,11,91,182,177,34,319,95,97]",0,-0.5,1,0,0,0,44,43,43,25,1,,,,,,,,,,,,,,,,,,,,,
,,,,,,,,,,,,,,,,,,,,,,,,,,,,,,,,,,,,,,,,,,,5b99c0a6a9c8150001d33bbc,5fb5d99cb10d321e67cdf81e,2020-11-18_18h43.25.664,Colour_Similarity_Experiment,2020.1.2,Win32,60,5fb5945709dec70f2d595766,,,,,,,,,,,,,,,,,,,,FF,,,,,,,,1,1.44467,,,,,,,,,,,,,,,,,,,,,,,,,,,,4,-54,29.5,1,0,0,response7disk,5,-13,6.5,1,0,0,rectangle,-13,6.5,1,0,0,4,6,"[196,148,267,171,55,213,167,12,286,205,229,274,11,91,182,177,34,319,95,97]",-13,6.5,1,0,0,0,45,44,44,116,1,,,,,,,,,,,,,,,,,,,,,
,,,,,,,,,,,,,,,,,,,,,,,,,,,,,,,,,,,,,,,,,,,5b99c0a6a9c8150001d33bbc,5fb5d99cb10d321e67cdf81e,2020-11-18_18h43.25.664,Colour_Similarity_Experiment,2020.1.2,Win32,60,5fb5945709dec70f2d595766,,,,,,,,,,,,,,,,,,,,PF,,,,,,,,6,1.40575,,,,,,,,,,,,,,,,,,,,,,,,,,,,7,68,34.5,1,0,0,response1disk,2,6,1.5,1,0,0,rectangle,6,1.5,1,0,0,4,6,"[196,148,267,171,55,213,167,12,286,205,229,274,11,91,182,177,34,319,95,97]",6,1.5,1,0,0,0,46,45,45,32,1,,,,,,,,,,,,,,,,,,,,,
,,,,,,,,,,,,,,,,,,,,,,,,,,,,,,,,,,,,,,,,,,,5b99c0a6a9c8150001d33bbc,5fb5d99cb10d321e67cdf81e,2020-11-18_18h43.25.664,Colour_Similarity_Experiment,2020.1.2,Win32,60,5fb5945709dec70f2d595766,,,,,,,,,,,,,,,,,,,,PF,,,,,,,,1,1.379985,,,,,,,,,,,,,,,,,,,,,,,,,,,,7,-54,29.5,1,0,0,response7disk,6,-14,1.5,1,0,0,rectangle,-14,1.5,1,0,0,4,6,"[196,148,267,171,55,213,167,12,286,205,229,274,11,91,182,177,34,319,95,97]",-14,1.5,1,0,0,0,47,46,46,29,1,,,,,,,,,,,,,,,,,,,,,
,,,,,,,,,,,,,,,,,,,,,,,,,,,,,,,,,,,,,,,,,,,5b99c0a6a9c8150001d33bbc,5fb5d99cb10d321e67cdf81e,2020-11-18_18h43.25.664,Colour_Similarity_Experiment,2020.1.2,Win32,60,5fb5945709dec70f2d595766,,,,,,,,,,,,,,,,,,,,FF,,,,,,,,0,1.163485,,,,,,,,,,,,,,,,,,,,,,,,,,,,8,-32,50.5,1,0,0,response7disk,8,0,-8.5,1,0,0,rectangle,0,-8.5,1,0,0,4,0,"[196,148,267,171,55,213,167,12,286,205,229,274,11,91,182,177,34,319,95,97]",0,-8.5,1,0,0,0,48,47,47,48,1,,,,,,,,,,,,,,,,,,,,,
,,,,,,,,,,,,,,,,,,,,,,,,,,,,,,,,,,,,,,,,,,,5b99c0a6a9c8150001d33bbc,5fb5d99cb10d321e67cdf81e,2020-11-18_18h43.25.664,Colour_Similarity_Experiment,2020.1.2,Win32,60,5fb5945709dec70f2d595766,,,,,,,,,,,,,,,,,,,,FF,,,,,,,,7,1.365815,,,,,,,,,,,,,,,,,,,,,,,,,,,,3,15,75.5,1,0,0,response1disk,8,6,8.5,1,0,0,rectangle,6,8.5,1,0,0,4,3,"[196,148,267,171,55,213,167,12,286,205,229,274,11,91,182,177,34,319,95,97]",6,8.5,1,0,0,0,49,48,48,44,1,,,,,,,,,,,,,,,,,,,,,
,,,,,,,,,,,,,,,,,,,,,,,,,,,,,,,,,,,,,,,,,,,5b99c0a6a9c8150001d33bbc,5fb5d99cb10d321e67cdf81e,2020-11-18_18h43.25.664,Colour_Similarity_Experiment,2020.1.2,Win32,60,5fb5945709dec70f2d595766,,,,,,,,,,,,,,,,,,,,PF,,,,,,,,6,2.727495,,,,,,,,,,,,,,,,,,,,,,,,,,,,4,61,30.5,1,0,0,response1disk,2,-4,-1.5,1,0,0,rectangle,-4,-1.5,1,0,0,4,5,"[196,148,267,171,55,213,167,12,286,205,229,274,11,91,182,177,34,319,95,97]",-4,-1.5,1,0,0,0,50,49,49,108,1,,,,,,,,,,,,,,,,,,,,,
,,,,,,,,,,,,,,,,,,,,,,,,,,,,,,,,,,,,,,,,,,,5b99c0a6a9c8150001d33bbc,5fb5d99cb10d321e67cdf81e,2020-11-18_18h43.25.664,Colour_Similarity_Experiment,2020.1.2,Win32,60,5fb5945709dec70f2d595766,,,,,,,,,,,,,,,,,,,,FF,,,,,,,,1,1.72983,,,,,,,,,,,,,,,,,,,,,,,,,,,,3,-51,36.5,1,0,0,response7disk,5,13,-5.5,1,0,0,rectangle,13,-5.5,1,0,0,4,7,"[196,148,267,171,55,213,167,12,286,205,229,274,11,91,182,177,34,319,95,97]",13,-5.5,1,0,0,0,51,50,50,101,1,,,,,,,,,,,,,,,,,,,,,
,,,,,,,,,,,,,,,,,,,,,,,,,,,,,,,,,,,,,,,,,,,5b99c0a6a9c8150001d33bbc,5fb5d99cb10d321e67cdf81e,2020-11-18_18h43.25.664,Colour_Similarity_Experiment,2020.1.2,Win32,60,5fb5945709dec70f2d595766,,,,,,,,,,,,,,,,,,,,PF,,,,,,,,6,2.79188,,,,,,,,,,,,,,,,,,,,,,,,,,,,3,66,37.5,1,0,0,response1disk,1,2,-1.5,1,0,0,rectangle,2,-1.5,1,0,0,4,5,"[196,148,267,171,55,213,167,12,286,205,229,274,11,91,182,177,34,319,95,97]",2,-1.5,1,0,0,0,52,51,51,96,1,,,,,,,,,,,,,,,,,,,,,
,,,,,,,,,,,,,,,,,,,,,,,,,,,,,,,,,,,,,,,,,,,5b99c0a6a9c8150001d33bbc,5fb5d99cb10d321e67cdf81e,2020-11-18_18h43.25.664,Colour_Similarity_Experiment,2020.1.2,Win32,60,5fb5945709dec70f2d595766,,,,,,,,,,,,,,,,,,,,PF,,,,,,,,6,4.840785,,,,,,,,,,,,,,,,,,,,,,,,,,,,6,97,37.5,1,0,0,response1disk,2,21,0.5,1,0,0,rectangle,21,0.5,1,0,0,4,7,"[196,148,267,171,55,213,167,12,286,205,229,274,11,91,182,177,34,319,95,97]",21,0.5,1,0,0,0,53,52,52,130,1,,,,,,,,,,,,,,,,,,,,,
,,,,,,,,,,,,,,,,,,,,,,,,,,,,,,,,,,,,,,,,,,,5b99c0a6a9c8150001d33bbc,5fb5d99cb10d321e67cdf81e,2020-11-18_18h43.25.664,Colour_Similarity_Experiment,2020.1.2,Win32,60,5fb5945709dec70f2d595766,,,,,,,,,,,,,,,,,,,,FF,,,,,,,,6,2.100165,,,,,,,,,,,,,,,,,,,,,,,,,,,,1,102,45.5,1,0,0,response1disk,5,27,6.5,1,0,0,rectangle,27,6.5,1,0,0,4,6,"[196,148,267,171,55,213,167,12,286,205,229,274,11,91,182,177,34,319,95,97]",27,6.5,1,0,0,0,54,53,53,82,1,,,,,,,,,,,,,,,,,,,,,
,,,,,,,,,,,,,,,,,,,,,,,,,,,,,,,,,,,,,,,,,,,5b99c0a6a9c8150001d33bbc,5fb5d99cb10d321e67cdf81e,2020-11-18_18h43.25.664,Colour_Similarity_Experiment,2020.1.2,Win32,60,5fb5945709dec70f2d595766,,,,,,,,,,,,,,,,,,,,FF,,,,,,,,2,2.856495,,,,,,,,,,,,,,,,,,,,,,,,,,,,5,-83,-37.5,1,0,0,response5disk,4,-15,7.5,1,0,0,rectangle,-77,-35.5,1,0,0,4,2,"[196,148,267,171,55,213,167,12,286,205,229,274,11,91,182,177,34,319,95,97]",-6,5.5,1,0,0,0,55,54,54,8,1,response5disk_3,rectangle,,,,,,,,,,,,,,,,,,,
,,,,,,,,,,,,,,,,,,,,,,,,,,,,,,,,,,,,,,,,,,,5b99c0a6a9c8150001d33bbc,5fb5d99cb10d321e67cdf81e,2020-11-18_18h43.25.664,Colour_Similarity_Experiment,2020.1.2,Win32,60,5fb5945709dec70f2d595766,,,,,,,,,,,,,,,,,,,,FF,,,,,,,,5,1.432925,,,,,,,,,,,,,,,,,,,,,,,,,,,,2,72,-15.5,1,0,0,response3disk,9,-7,5.5,1,0,0,rectangle,-7,5.5,1,0,0,4,7,"[196,148,267,171,55,213,167,12,286,205,229,274,11,91,182,177,34,319,95,97]",-7,5.5,1,0,0,0,56,55,55,72,1,,,,,,,,,,,,,,,,,,,,,
,,,,,,,,,,,,,,,,,,,,,,,,,,,,,,,,,,,,,,,,,,,5b99c0a6a9c8150001d33bbc,5fb5d99cb10d321e67cdf81e,2020-11-18_18h43.25.664,Colour_Similarity_Experiment,2020.1.2,Win32,60,5fb5945709dec70f2d595766,,,,,,,,,,,,,,,,,,,,FF,,,,,,,,2,1.170545,,,,,,,,,,,,,,,,,,,,,,,,,,,,4,-61,-28.5,1,0,0,response5disk,3,-14,2.5,1,0,0,rectangle,-14,2.5,1,0,0,4,1,"[196,148,267,171,55,213,167,12,286,205,229,274,11,91,182,177,34,319,95,97]",-14,2.5,1,0,0,0,57,56,56,77,1,,,,,,,,,,,,,,,,,,,,,
,,,,,,,,,,,,,,,,,,,,,,,,,,,,,,,,,,,,,,,,,,,5b99c0a6a9c8150001d33bbc,5fb5d99cb10d321e67cdf81e,2020-11-18_18h43.25.664,Colour_Similarity_Experiment,2020.1.2,Win32,60,5fb5945709dec70f2d595766,,,,,,,,,,,,,,,,,,,,PF,,,,,,,,5,1.74871,,,,,,,,,,,,,,,,,,,,,,,,,,,,2,67,-52.5,1,0,0,response3disk,5,17,6.5,1,0,0,rectangle,17,6.5,1,0,0,4,3,"[196,148,267,171,55,213,167,12,286,205,229,274,11,91,182,177,34,319,95,97]",17,6.5,1,0,0,0,58,57,57,147,1,,,,,,,,,,,,,,,,,,,,,
,,,,,,,,,,,,,,,,,,,,,,,,,,,,,,,,,,,,,,,,,,,5b99c0a6a9c8150001d33bbc,5fb5d99cb10d321e67cdf81e,2020-11-18_18h43.25.664,Colour_Similarity_Experiment,2020.1.2,Win32,60,5fb5945709dec70f2d595766,,,,,,,,,,,,,,,,,,,,PF,,,,,,,,5,1.372255,,,,,,,,,,,,,,,,,,,,,,,,,,,,5,85,-25.5,1,0,0,response3disk,9,24,4.5,1,0,0,rectangle,24,4.5,1,0,0,4,0,"[196,148,267,171,55,213,167,12,286,205,229,274,11,91,182,177,34,319,95,97]",24,4.5,1,0,0,0,59,58,58,136,1,,,,,,,,,,,,,,,,,,,,,
,,,,,,,,,,,,,,,,,,,,,,,,,,,,,,,,,,,,,,,,,,,5b99c0a6a9c8150001d33bbc,5fb5d99cb10d321e67cdf81e,2020-11-18_18h43.25.664,Colour_Similarity_Experiment,2020.1.2,Win32,60,5fb5945709dec70f2d595766,,,,,,,,,,,,,,,,,,,,PF,,,,,,,,3,1.38399,,,,,,,,,,,,,,,,,,,,,,,,,,,,5,-55,-69.5,1,0,0,response5disk,6,-14,-8.5,1,0,0,rectangle,-14,-8.5,1,0,0,4,2,"[196,148,267,171,55,213,167,12,286,205,229,274,11,91,182,177,34,319,95,97]",-14,-8.5,1,0,0,0,60,59,59,103,1,,,,,,,,,,,,,,,,,,,,,
,,,,,,,,,,,,,,,,,,,,,,,,,,,,,,,,,,,,,,,,,,,5b99c0a6a9c8150001d33bbc,5fb5d99cb10d321e67cdf81e,2020-11-18_18h43.25.664,Colour_Similarity_Experiment,2020.1.2,Win32,60,5fb5945709dec70f2d595766,,,,,,,,,,,,,,,,,,,,FF,,,,,,,,6,1.112085,,,,,,,,,,,,,,,,,,,,,,,,,,,,9,60,25.5,1,0,0,response1disk,6,19,3.5,1,0,0,rectangle,19,3.5,1,0,0,4,0,"[196,148,267,171,55,213,167,12,286,205,229,274,11,91,182,177,34,319,95,97]",19,3.5,1,0,0,0,61,60,60,117,1,,,,,,,,,,,,,,,,,,,,,
,,,,,,,,,,,,,,,,,,,,,,,,,,,,,,,,,,,,,,,,,,,5b99c0a6a9c8150001d33bbc,5fb5d99cb10d321e67cdf81e,2020-11-18_18h43.25.664,Colour_Similarity_Experiment,2020.1.2,Win32,60,5fb5945709dec70f2d595766,,,,,,,,,,,,,,,,,,,,FF,,,,,,,,6,0.558635,,,,,,,,,,,,,,,,,,,,,,,,,,,,9,65,28.5,1,0,0,response1disk,1,-14,-5.5,1,0,0,rectangle,-14,-5.5,1,0,0,4,2,"[196,148,267,171,55,213,167,12,286,205,229,274,11,91,182,177,34,319,95,97]",-14,-5.5,1,0,0,0,62,61,61,111,1,,,,,,,,,,,,,,,,,,,,,
,,,,,,,,,,,,,,,,,,,,,,,,,,,,,,,,,,,,,,,,,,,5b99c0a6a9c8150001d33bbc,5fb5d99cb10d321e67cdf81e,2020-11-18_18h43.25.664,Colour_Similarity_Experiment,2020.1.2,Win32,60,5fb5945709dec70f2d595766,,,,,,,,,,,,,,,,,,,,PF,,,,,,,,6,1.054955,,,,,,,,,,,,,,,,,,,,,,,,,,,,8,69,40.5,1,0,0,response1disk,5,15,2.5,1,0,0,rectangle,15,2.5,1,0,0,4,3,"[196,148,267,171,55,213,167,12,286,205,229,274,11,91,182,177,34,319,95,97]",15,2.5,1,0,0,0,63,62,62,98,1,,,,,,,,,,,,,,,,,,,,,
,,,,,,,,,,,,,,,,,,,,,,,,,,,,,,,,,,,,,,,,,,,5b99c0a6a9c8150001d33bbc,5fb5d99cb10d321e67cdf81e,2020-11-18_18h43.25.664,Colour_Similarity_Experiment,2020.1.2,Win32,60,5fb5945709dec70f2d595766,,,,,,,,,,,,,,,,,,,,FF,,,,,,,,6,1.115755,,,,,,,,,,,,,,,,,,,,,,,,,,,,7,85,47.5,1,0,0,response1disk,9,21,0.5,1,0,0,rectangle,21,0.5,1,0,0,4,7,"[196,148,267,171,55,213,167,12,286,205,229,274,11,91,182,177,34,319,95,97]",21,0.5,1,0,0,0,64,63,63,155,1,,,,,,,,,,,,,,,,,,,,,
,,,,,,,,,,,,,,,,,,,,,,,,,,,,,,,,,,,,,,,,,,,5b99c0a6a9c8150001d33bbc,5fb5d99cb10d321e67cdf81e,2020-11-18_18h43.25.664,Colour_Similarity_Experiment,2020.1.2,Win32,60,5fb5945709dec70f2d595766,,,,,,,,,,,,,,,,,,,,PF,,,,,,,,7,1.64128,,,,,,,,,,,,,,,,,,,,,,,,,,,,1,70,87.5,1,0,0,response1disk,4,9,-2.5,1,0,0,rectangle,9,-2.5,1,0,0,4,2,"[196,148,267,171,55,213,167,12,286,205,229,274,11,91,182,177,34,319,95,97]",9,-2.5,1,0,0,0,65,64,64,139,1,,,,,,,,,,,,,,,,,,,,,
,,,,,,,,,,,,,,,,,,,,,,,,,,,,,,,,,,,,,,,,,,,5b99c0a6a9c8150001d33bbc,5fb5d99cb10d321e67cdf81e,2020-11-18_18h43.25.664,Colour_Similarity_Experiment,2020.1.2,Win32,60,5fb5945709dec70f2d595766,,,,,,,,,,,,,,,,,,,,PF,,,,,,,,2,1.6549,,,,,,,,,,,,,,,,,,,,,,,,,,,,6,-86,-34.5,1,0,0,response5disk,7,-8,8.5,1,0,0,rectangle,-8,8.5,1,0,0,4,5,"[196,148,267,171,55,213,167,12,286,205,229,274,11,91,182,177,34,319,95,97]",-8,8.5,1,0,0,0,66,65,65,50,1,,,,,,,,,,,,,,,,,,,,,
,,,,,,,,,,,,,,,,,,,,,,,,,,,,,,,,,,,,,,,,,,,5b99c0a6a9c8150001d33bbc,5fb5d99cb10d321e67cdf81e,2020-11-18_18h43.25.664,Colour_Similarity_Experiment,2020.1.2,Win32,60,5fb5945709dec70f2d595766,,,,,,,,,,,,,,,,,,,,PF,,,,,,,,4,1.37449,,,,,,,,,,,,,,,,,,,,,,,,,,,,7,33,-63.5,1,0,0,response3disk,4,12,-8.5,1,0,0,rectangle,12,-8.5,1,0,0,4,3,"[196,148,267,171,55,213,167,12,286,205,229,274,11,91,182,177,34,319,95,97]",12,-8.5,1,0,0,0,67,66,66,43,1,,,,,,,,,,,,,,,,,,,,,
,,,,,,,,,,,,,,,,,,,,,,,,,,,,,,,,,,,,,,,,,,,5b99c0a6a9c8150001d33bbc,5fb5d99cb10d321e67cdf81e,2020-11-18_18h43.25.664,Colour_Similarity_Experiment,2020.1.2,Win32,60,5fb5945709dec70f2d595766,,,,,,,,,,,,,,,,,,,,FF,,,,,,,,7,1.773615,,,,,,,,,,,,,,,,,,,,,,,,,,,,9,48,85.5,1,0,0,response1disk,3,19,1.5,1,0,0,rectangle,19,1.5,1,0,0,4,5,"[196,148,267,171,55,213,167,12,286,205,229,274,11,91,182,177,34,319,95,97]",19,1.5,1,0,0,0,68,67,67,141,1,,,,,,,,,,,,,,,,,,,,,
,,,,,,,,,,,,,,,,,,,,,,,,,,,,,,,,,,,,,,,,,,,5b99c0a6a9c8150001d33bbc,5fb5d99cb10d321e67cdf81e,2020-11-18_18h43.25.664,Colour_Similarity_Experiment,2020.1.2,Win32,60,5fb5945709dec70f2d595766,,,,,,,,,,,,,,,,,,,,FF,,,,,,,,6,3.61128,,,,,,,,,,,,,,,,,,,,,,,,,,,,5,57,32.5,1,0,0,response1disk,9,26,1.5,1,0,0,rectangle,26,1.5,1,0,0,4,5,"[196,148,267,171,55,213,167,12,286,205,229,274,11,91,182,177,34,319,95,97]",26,1.5,1,0,0,0,69,68,68,61,1,,,,,,,,,,,,,,,,,,,,,
,,,,,,,,,,,,,,,,,,,,,,,,,,,,,,,,,,,,,,,,,,,5b99c0a6a9c8150001d33bbc,5fb5d99cb10d321e67cdf81e,2020-11-18_18h43.25.664,Colour_Similarity_Experiment,2020.1.2,Win32,60,5fb5945709dec70f2d595766,,,,,,,,,,,,,,,,,,,,FF,,,,,,,,6,1.137295,,,,,,,,,,,,,,,,,,,,,,,,,,,,4,69,38.5,1,0,0,response1disk,9,18,-2.5,1,0,0,rectangle,18,-2.5,1,0,0,4,5,"[196,148,267,171,55,213,167,12,286,205,229,274,11,91,182,177,34,319,95,97]",18,-2.5,1,0,0,0,70,69,69,90,1,,,,,,,,,,,,,,,,,,,,,
,,,,,,,,,,,,,,,,,,,,,,,,,,,,,,,,,,,,,,,,,,,5b99c0a6a9c8150001d33bbc,5fb5d99cb10d321e67cdf81e,2020-11-18_18h43.25.664,Colour_Similarity_Experiment,2020.1.2,Win32,60,5fb5945709dec70f2d595766,,,,,,,,,,,,,,,,,,,,FF,,,,,,,,3,1.69809,,,,,,,,,,,,,,,,,,,,,,,,,,,,7,-28,-70.5,1,0,0,response5disk,5,7,2.5,1,0,0,rectangle,7,2.5,1,0,0,4,0,"[196,148,267,171,55,213,167,12,286,205,229,274,11,91,182,177,34,319,95,97]",7,2.5,1,0,0,0,71,70,70,156,1,,,,,,,,,,,,,,,,,,,,,
,,,,,,,,,,,,,,,,,,,,,,,,,,,,,,,,,,,,,,,,,,,5b99c0a6a9c8150001d33bbc,5fb5d99cb10d321e67cdf81e,2020-11-18_18h43.25.664,Colour_Similarity_Experiment,2020.1.2,Win32,60,5fb5945709dec70f2d595766,,,,,,,,,,,,,,,,,,,,FF,,,,,,,,6,1.37888,,,,,,,,,,,,,,,,,,,,,,,,,,,,9,50,27.5,1,0,0,response1disk,2,24,3.5,1,0,0,rectangle,24,3.5,1,0,0,4,0,"[196,148,267,171,55,213,167,12,286,205,229,274,11,91,182,177,34,319,95,97]",24,3.5,1,0,0,0,72,71,71,11,1,,,,,,,,,,,,,,,,,,,,,
,,,,,,,,,,,,,,,,,,,,,,,,,,,,,,,,,,,,,,,,,,,5b99c0a6a9c8150001d33bbc,5fb5d99cb10d321e67cdf81e,2020-11-18_18h43.25.664,Colour_Similarity_Experiment,2020.1.2,Win32,60,5fb5945709dec70f2d595766,,,,,,,,,,,,,,,,,,,,PF,,,,,,,,7,2.24383,,,,,,,,,,,,,,,,,,,,,,,,,,,,9,41,95.5,1,0,0,response1disk,4,5,2.5,1,0,0,rectangle,5,2.5,1,0,0,4,7,"[196,148,267,171,55,213,167,12,286,205,229,274,11,91,182,177,34,319,95,97]",5,2.5,1,0,0,0,73,72,72,114,1,,,,,,,,,,,,,,,,,,,,,
,,,,,,,,,,,,,,,,,,,,,,,,,,,,,,,,,,,,,,,,,,,5b99c0a6a9c8150001d33bbc,5fb5d99cb10d321e67cdf81e,2020-11-18_18h43.25.664,Colour_Similarity_Experiment,2020.1.2,Win32,60,5fb5945709dec70f2d595766,,,,,,,,,,,,,,,,,,,,FF,,,,,,,,2,1.22329,,,,,,,,,,,,,,,,,,,,,,,,,,,,7,-59,-46.5,1,0,0,response5disk,6,12,-1.5,1,0,0,rectangle,12,-1.5,1,0,0,4,7,"[196,148,267,171,55,213,167,12,286,205,229,274,11,91,182,177,34,319,95,97]",12,-1.5,1,0,0,0,74,73,73,31,1,,,,,,,,,,,,,,,,,,,,,
,,,,,,,,,,,,,,,,,,,,,,,,,,,,,,,,,,,,,,,,,,,5b99c0a6a9c8150001d33bbc,5fb5d99cb10d321e67cdf81e,2020-11-18_18h43.25.664,Colour_Similarity_Experiment,2020.1.2,Win32,60,5fb5945709dec70f2d595766,,,,,,,,,,,,,,,,,,,,PF,,,,,,,,6,1.76281,,,,,,,,,,,,,,,,,,,,,,,,,,,,5,65,31.5,1,0,0,response1disk,1,8,2.5,1,0,0,rectangle,8,2.5,1,0,0,4,2,"[196,148,267,171,55,213,167,12,286,205,229,274,11,91,182,177,34,319,95,97]",8,2.5,1,0,0,0,75,74,74,159,1,,,,,,,,,,,,,,,,,,,,,
,,,,,,,,,,,,,,,,,,,,,,,,,,,,,,,,,,,,,,,,,,,5b99c0a6a9c8150001d33bbc,5fb5d99cb10d321e67cdf81e,2020-11-18_18h43.25.664,Colour_Similarity_Experiment,2020.1.2,Win32,60,5fb5945709dec70f2d595766,,,,,,,,,,,,,,,,,,,,PF,,,,,,,,3,1.139205,,,,,,,,,,,,,,,,,,,,,,,,,,,,3,-36,-56.5,1,0,0,response5disk,6,-5,-0.5,1,0,0,rectangle,-5,-0.5,1,0,0,4,3,"[196,148,267,171,55,213,167,12,286,205,229,274,11,91,182,177,34,319,95,97]",-5,-0.5,1,0,0,0,76,75,75,47,1,,,,,,,,,,,,,,,,,,,,,
,,,,,,,,,,,,,,,,,,,,,,,,,,,,,,,,,,,,,,,,,,,5b99c0a6a9c8150001d33bbc,5fb5d99cb10d321e67cdf81e,2020-11-18_18h43.25.664,Colour_Similarity_Experiment,2020.1.2,Win32,60,5fb5945709dec70f2d595766,,,,,,,,,,,,,,,,,,,,FF,,,,,,,,7,1.72336,,,,,,,,,,,,,,,,,,,,,,,,,,,,9,35,72.5,1,0,0,response1disk,4,-5,-0.5,1,0,0,rectangle,-5,-0.5,1,0,0,4,7,"[196,148,267,171,55,213,167,12,286,205,229,274,11,91,182,177,34,319,95,97]",-5,-0.5,1,0,0,0,77,76,76,60,1,,,,,,,,,,,,,,,,,,,,,
,,,,,,,,,,,,,,,,,,,,,,,,,,,,,,,,,,,,,,,,,,,5b99c0a6a9c8150001d33bbc,5fb5d99cb10d321e67cdf81e,2020-11-18_18h43.25.664,Colour_Similarity_Experiment,2020.1.2,Win32,60,5fb5945709dec70f2d595766,,,,,,,,,,,,,,,,,,,,PF,,,,,,,,7,1.75865,,,,,,,,,,,,,,,,,,,,,,,,,,,,9,50,74.5,1,0,0,response1disk,2,16,3.5,1,0,0,rectangle,16,3.5,1,0,0,4,1,"[196,148,267,171,55,213,167,12,286,205,229,274,11,91,182,177,34,319,95,97]",16,3.5,1,0,0,0,78,77,77,157,1,,,,,,,,,,,,,,,,,,,,,
,,,,,,,,,,,,,,,,,,,,,,,,,,,,,,,,,,,,,,,,,,,5b99c0a6a9c8150001d33bbc,5fb5d99cb10d321e67cdf81e,2020-11-18_18h43.25.664,Colour_Similarity_Experiment,2020.1.2,Win32,60,5fb5945709dec70f2d595766,,,,,,,,,,,,,,,,,,,,FF,,,,,,,,7,1.36159,,,,,,,,,,,,,,,,,,,,,,,,,,,,6,55,82.5,1,0,0,response1disk,1,14,-2.5,1,0,0,rectangle,14,-2.5,1,0,0,4,5,"[196,148,267,171,55,213,167,12,286,205,229,274,11,91,182,177,34,319,95,97]",14,-2.5,1,0,0,0,79,78,78,5,1,,,,,,,,,,,,,,,,,,,,,
,,,,,,,,,,,,,,,,,,,,,,,,,,,,,,,,,,,,,,,,,,,5b99c0a6a9c8150001d33bbc,5fb5d99cb10d321e67cdf81e,2020-11-18_18h43.25.664,Colour_Similarity_Experiment,2020.1.2,Win32,60,5fb5945709dec70f2d595766,,,,,,,,,,,,,,,,,,,,PF,,,,,,,,7,1.40904,,,,,,,,,,,,,,,,,,,,,,,,,,,,1,60,81.5,1,0,0,response1disk,3,18,-0.5,1,0,0,rectangle,18,-0.5,1,0,0,4,1,"[196,148,267,171,55,213,167,12,286,205,229,274,11,91,182,177,34,319,95,97]",18,-0.5,1,0,0,0,80,79,79,1,1,,,,,,,,,,,,,,,,,,,,,
,,,,,,,,,,,,,,,,,,,,,,,,,,,,,,,,,,,,,,,,,,,5b99c0a6a9c8150001d33bbc,5fb5d99cb10d321e67cdf81e,2020-11-18_18h43.25.664,Colour_Similarity_Experiment,2020.1.2,Win32,60,5fb5945709dec70f2d595766,,,,,,,,,,,,,,,,,,,,PF,,,,,,,,3,1.421915,,,,,,,,,,,,,,,,,,,,,,,,,,,,7,-36,-66.5,1,0,0,response5disk,5,2,-10.5,1,0,0,rectangle,2,-10.5,1,0,0,4,1,"[196,148,267,171,55,213,167,12,286,205,229,274,11,91,182,177,34,319,95,97]",2,-10.5,1,0,0,0,81,80,80,92,1,,,,,,,,,,,,,,,,,,,,,
,,,,,,,,,,,,,,,,,,,,,,,,,,,,,,,,,,,,,,,,,,,5b99c0a6a9c8150001d33bbc,5fb5d99cb10d321e67cdf81e,2020-11-18_18h43.25.664,Colour_Similarity_Experiment,2020.1.2,Win32,60,5fb5945709dec70f2d595766,,,,,,,,,,,,,,,,,,,,FF,,,,,,,,4,1.338455,,,,,,,,,,,,,,,,,,,,,,,,,,,,7,21,-59.5,1,0,0,response3disk,3,22,7.5,1,0,0,rectangle,22,7.5,1,0,0,4,1,"[196,148,267,171,55,213,167,12,286,205,229,274,11,91,182,177,34,319,95,97]",22,7.5,1,0,0,0,82,81,81,73,1,,,,,,,,,,,,,,,,,,,,,
,,,,,,,,,,,,,,,,,,,,,,,,,,,,,,,,,,,,,,,,,,,5b99c0a6a9c8150001d33bbc,5fb5d99cb10d321e67cdf81e,2020-11-18_18h43.25.664,Colour_Similarity_Experiment,2020.1.2,Win32,60,5fb5945709dec70f2d595766,,,,,,,,,,,,,,,,,,,,FF,,,,,,,,6,1.37311,,,,,,,,,,,,,,,,,,,,,,,,,,,,8,44,35.5,1,0,0,response1disk,3,30,7.5,1,0,0,rectangle,30,7.5,1,0,0,4,5,"[196,148,267,171,55,213,167,12,286,205,229,274,11,91,182,177,34,319,95,97]",30,7.5,1,0,0,0,83,82,82,154,1,,,,,,,,,,,,,,,,,,,,,
,,,,,,,,,,,,,,,,,,,,,,,,,,,,,,,,,,,,,,,,,,,5b99c0a6a9c8150001d33bbc,5fb5d99cb10d321e67cdf81e,2020-11-18_18h43.25.664,Colour_Similarity_Experiment,2020.1.2,Win32,60,5fb5945709dec70f2d595766,,,,,,,,,,,,,,,,,,,,FF,,,,,,,,7,1.32308,,,,,,,,,,,,,,,,,,,,,,,,,,,,1,48,84.5,1,0,0,response1disk,7,33,4.5,1,0,0,rectangle,33,4.5,1,0,0,4,6,"[196,148,267,171,55,213,167,12,286,205,229,274,11,91,182,177,34,319,95,97]",33,4.5,1,0,0,0,84,83,83,137,1,,,,,,,,,,,,,,,,,,,,,
,,,,,,,,,,,,,,,,,,,,,,,,,,,,,,,,,,,,,,,,,,,5b99c0a6a9c8150001d33bbc,5fb5d99cb10d321e67cdf81e,2020-11-18_18h43.25.664,Colour_Similarity_Experiment,2020.1.2,Win32,60,5fb5945709dec70f2d595766,,,,,,,,,,,,,,,,,,,,PF,,,,,,,,0,1.32359,,,,,,,,,,,,,,,,,,,,,,,,,,,,9,-65,99.5,1,0,0,response7disk,9,14,3.5,1,0,0,rectangle,14,3.5,1,0,0,4,5,"[196,148,267,171,55,213,167,12,286,205,229,274,11,91,182,177,34,319,95,97]",14,3.5,1,0,0,0,85,84,84,106,1,,,,,,,,,,,,,,,,,,,,,
,,,,,,,,,,,,,,,,,,,,,,,,,,,,,,,,,,,,,,,,,,,5b99c0a6a9c8150001d33bbc,5fb5d99cb10d321e67cdf81e,2020-11-18_18h43.25.664,Colour_Similarity_Experiment,2020.1.2,Win32,60,5fb5945709dec70f2d595766,,,,,,,,,,,,,,,,,,,,FF,,,,,,,,3,1.17569,,,,,,,,,,,,,,,,,,,,,,,,,,,,2,-30,-81.5,1,0,0,response5disk,3,-4,-8.5,1,0,0,rectangle,-4,-8.5,1,0,0,4,6,"[196,148,267,171,55,213,167,12,286,205,229,274,11,91,182,177,34,319,95,97]",-4,-8.5,1,0,0,0,86,85,85,104,1,,,,,,,,,,,,,,,,,,,,,
,,,,,,,,,,,,,,,,,,,,,,,,,,,,,,,,,,,,,,,,,,,5b99c0a6a9c8150001d33bbc,5fb5d99cb10d321e67cdf81e,2020-11-18_18h43.25.664,Colour_Similarity_Experiment,2020.1.2,Win32,60,5fb5945709dec70f2d595766,,,,,,,,,,,,,,,,,,,,FF,,,,,,,,3,1.13074,,,,,,,,,,,,,,,,,,,,,,,,,,,,6,-30,-83.5,1,0,0,response5disk,4,5,3.5,1,0,0,rectangle,5,3.5,1,0,0,4,3,"[196,148,267,171,55,213,167,12,286,205,229,274,11,91,182,177,34,319,95,97]",5,3.5,1,0,0,0,87,86,86,56,1,,,,,,,,,,,,,,,,,,,,,
,,,,,,,,,,,,,,,,,,,,,,,,,,,,,,,,,,,,,,,,,,,5b99c0a6a9c8150001d33bbc,5fb5d99cb10d321e67cdf81e,2020-11-18_18h43.25.664,Colour_Similarity_Experiment,2020.1.2,Win32,60,5fb5945709dec70f2d595766,,,,,,,,,,,,,,,,,,,,PF,,,,,,,,4,1.373845,,,,,,,,,,,,,,,,,,,,,,,,,,,,5,25,-76.5,1,0,0,response3disk,7,10,-4.5,1,0,0,rectangle,10,-4.5,1,0,0,4,4,"[196,148,267,171,55,213,167,12,286,205,229,274,11,91,182,177,34,319,95,97]",10,-4.5,1,0,0,0,88,87,87,146,1,,,,,,,,,,,,,,,,,,,,,
,,,,,,,,,,,,,,,,,,,,,,,,,,,,,,,,,,,,,,,,,,,5b99c0a6a9c8150001d33bbc,5fb5d99cb10d321e67cdf81e,2020-11-18_18h43.25.664,Colour_Similarity_Experiment,2020.1.2,Win32,60,5fb5945709dec70f2d595766,,,,,,,,,,,,,,,,,,,,FF,,,,,,,,6,1.130865,,,,,,,,,,,,,,,,,,,,,,,,,,,,8,57,40.5,1,0,0,response1disk,2,25,2.5,1,0,0,rectangle,25,2.5,1,0,0,4,6,"[196,148,267,171,55,213,167,12,286,205,229,274,11,91,182,177,34,319,95,97]",25,2.5,1,0,0,0,89,88,88,22,1,,,,,,,,,,,,,,,,,,,,,
,,,,,,,,,,,,,,,,,,,,,,,,,,,,,,,,,,,,,,,,,,,5b99c0a6a9c8150001d33bbc,5fb5d99cb10d321e67cdf81e,2020-11-18_18h43.25.664,Colour_Similarity_Experiment,2020.1.2,Win32,60,5fb5945709dec70f2d595766,,,,,,,,,,,,,,,,,,,,FF,,,,,,,,7,1.37888,,,,,,,,,,,,,,,,,,,,,,,,,,,,2,41,53.5,1,0,0,response1disk,8,20,8.5,1,0,0,rectangle,20,8.5,1,0,0,4,2,"[196,148,267,171,55,213,167,12,286,205,229,274,11,91,182,177,34,319,95,97]",20,8.5,1,0,0,0,90,89,89,62,1,,,,,,,,,,,,,,,,,,,,,
,,,,,,,,,,,,,,,,,,,,,,,,,,,,,,,,,,,,,,,,,,,5b99c0a6a9c8150001d33bbc,5fb5d99cb10d321e67cdf81e,2020-11-18_18h43.25.664,Colour_Similarity_Experiment,2020.1.2,Win32,60,5fb5945709dec70f2d595766,,,,,,,,,,,,,,,,,,,,PF,,,,,,,,4,1.34919,,,,,,,,,,,,,,,,,,,,,,,,,,,,3,31,-58.5,1,0,0,response3disk,2,24,-10.5,1,0,0,rectangle,-82,-53.5,1,0,0,4,2,"[196,148,267,171,55,213,167,12,286,205,229,274,11,91,182,177,34,319,95,97]",-13,5.5,1,0,0,0,91,90,90,36,1,response5disk_3,rectangle,,,,,,,,,,,,,,,,,,,
,,,,,,,,,,,,,,,,,,,,,,,,,,,,,,,,,,,,,,,,,,,5b99c0a6a9c8150001d33bbc,5fb5d99cb10d321e67cdf81e,2020-11-18_18h43.25.664,Colour_Similarity_Experiment,2020.1.2,Win32,60,5fb5945709dec70f2d595766,,,,,,,,,,,,,,,,,,,,FF,,,,,,,,4,1.382775,,,,,,,,,,,,,,,,,,,,,,,,,,,,5,24,-62.5,1,0,0,response3disk,8,15,5.5,1,0,0,rectangle,15,5.5,1,0,0,4,0,"[196,148,267,171,55,213,167,12,286,205,229,274,11,91,182,177,34,319,95,97]",15,5.5,1,0,0,0,92,91,91,16,1,,,,,,,,,,,,,,,,,,,,,
,,,,,,,,,,,,,,,,,,,,,,,,,,,,,,,,,,,,,,,,,,,5b99c0a6a9c8150001d33bbc,5fb5d99cb10d321e67cdf81e,2020-11-18_18h43.25.664,Colour_Similarity_Experiment,2020.1.2,Win32,60,5fb5945709dec70f2d595766,,,,,,,,,,,,,,,,,,,,PF,,,,,,,,4,2.336345,,,,,,,,,,,,,,,,,,,,,,,,,,,,2,45,-65.5,1,0,0,response3disk,1,33,-8.5,1,0,0,rectangle,33,-8.5,1,0,0,4,0,"[196,148,267,171,55,213,167,12,286,205,229,274,11,91,182,177,34,319,95,97]",33,-8.5,1,0,0,0,93,92,92,9,1,,,,,,,,,,,,,,,,,,,,,
,,,,,,,,,,,,,,,,,,,,,,,,,,,,,,,,,,,,,,,,,,,5b99c0a6a9c8150001d33bbc,5fb5d99cb10d321e67cdf81e,2020-11-18_18h43.25.664,Colour_Similarity_Experiment,2020.1.2,Win32,60,5fb5945709dec70f2d595766,,,,,,,,,,,,,,,,,,,,PF,,,,,,,,0,1.42712,,,,,,,,,,,,,,,,,,,,,,,,,,,,6,-48,76.5,1,0,0,response7disk,6,11,-0.5,1,0,0,rectangle,11,-0.5,1,0,0,4,7,"[196,148,267,171,55,213,167,12,286,205,229,274,11,91,182,177,34,319,95,97]",11,-0.5,1,0,0,0,94,93,93,0,1,,,,,,,,,,,,,,,,,,,,,
,,,,,,,,,,,,,,,,,,,,,,,,,,,,,,,,,,,,,,,,,,,5b99c0a6a9c8150001d33bbc,5fb5d99cb10d321e67cdf81e,2020-11-18_18h43.25.664,Colour_Similarity_Experiment,2020.1.2,Win32,60,5fb5945709dec70f2d595766,,,,,,,,,,,,,,,,,,,,PF,,,,,,,,0,1.196255,,,,,,,,,,,,,,,,,,,,,,,,,,,,1,-48,63.5,1,0,0,response7disk,1,-4,2.5,1,0,0,rectangle,59,-27.5,1,0,0,5,5,"[196,148,267,171,55,213,167,12,286,205,229,274,11,91,182,177,34,319,95,97]",10,-1.5,1,0,0,0,95,94,94,76,1,response3disk_3,rectangle,,,,,,,,,,,,,,,,,,,
,,,,,,,,,,,,,,,,,,,,,,,,,,,,,,,,,,,,,,,,,,,5b99c0a6a9c8150001d33bbc,5fb5d99cb10d321e67cdf81e,2020-11-18_18h43.25.664,Colour_Similarity_Experiment,2020.1.2,Win32,60,5fb5945709dec70f2d595766,,,,,,,,,,,,,,,,,,,,FF,,,,,,,,0,1.10524,,,,,,,,,,,,,,,,,,,,,,,,,,,,5,-49,90.5,1,0,0,response7disk,5,-3,-6.5,1,0,0,rectangle,-3,-6.5,1,0,0,5,5,"[196,148,267,171,55,213,167,12,286,205,229,274,11,91,182,177,34,319,95,97]",-3,-6.5,1,0,0,0,96,95,95,19,1,,,,,,,,,,,,,,,,,,,,,
,,,,,,,,,,,,,,,,,,,,,,,,,,,,,,,,,,,,,,,,,,,5b99c0a6a9c8150001d33bbc,5fb5d99cb10d321e67cdf81e,2020-11-18_18h43.25.664,Colour_Similarity_Experiment,2020.1.2,Win32,60,5fb5945709dec70f2d595766,,,,,,,,,,,,,,,,,,,,FF,,,,,,,,6,1.63306,,,,,,,,,,,,,,,,,,,,,,,,,,,,4,51,34.5,1,0,0,response1disk,8,7,2.5,1,0,0,rectangle,-78,-41.5,1,0,0,5,2,"[196,148,267,171,55,213,167,12,286,205,229,274,11,91,182,177,34,319,95,97]",-14,1.5,1,0,0,0,97,96,96,35,1,response5disk_3,rectangle,,,,,,,,,,,,,,,,,,,
,,,,,,,,,,,,,,,,,,,,,,,,,,,,,,,,,,,,,,,,,,,5b99c0a6a9c8150001d33bbc,5fb5d99cb10d321e67cdf81e,2020-11-18_18h43.25.664,Colour_Similarity_Experiment,2020.1.2,Win32,60,5fb5945709dec70f2d595766,,,,,,,,,,,,,,,,,,,,FF,,,,,,,,7,1.47605,,,,,,,,,,,,,,,,,,,,,,,,,,,,2,54,83.5,1,0,0,response1disk,6,17,-1.5,1,0,0,rectangle,17,-1.5,1,0,0,5,1,"[196,148,267,171,55,213,167,12,286,205,229,274,11,91,182,177,34,319,95,97]",17,-1.5,1,0,0,0,98,97,97,40,1,,,,,,,,,,,,,,,,,,,,,
,,,,,,,,,,,,,,,,,,,,,,,,,,,,,,,,,,,,,,,,,,,5b99c0a6a9c8150001d33bbc,5fb5d99cb10d321e67cdf81e,2020-11-18_18h43.25.664,Colour_Similarity_Experiment,2020.1.2,Win32,60,5fb5945709dec70f2d595766,,,,,,,,,,,,,,,,,,,,FF,,,,,,,,6,1.09389,,,,,,,,,,,,,,,,,,,,,,,,,,,,4,55,38.5,1,0,0,response1disk,1,21,3.5,1,0,0,rectangle,21,3.5,1,0,0,5,5,"[196,148,267,171,55,213,167,12,286,205,229,274,11,91,182,177,34,319,95,97]",21,3.5,1,0,0,0,99,98,98,102,1,,,,,,,,,,,,,,,,,,,,,
,,,,,,,,,,,,,,,,,,,,,,,,,,,,,,,,,,,,,,,,,,,5b99c0a6a9c8150001d33bbc,5fb5d99cb10d321e67cdf81e,2020-11-18_18h43.25.664,Colour_Similarity_Experiment,2020.1.2,Win32,60,5fb5945709dec70f2d595766,,,,,,,,,,,,,,,,,,,,PF,,,,,,,,4,1.678475,,,,,,,,,,,,,,,,,,,,,,,,,,,,6,31,-82.5,1,0,0,response3disk,8,18,-6.5,1,0,0,rectangle,18,-6.5,1,0,0,5,6,"[196,148,267,171,55,213,167,12,286,205,229,274,11,91,182,177,34,319,95,97]",18,-6.5,1,0,0,0,100,99,99,64,1,,,,,,,,,,,,,,,,,,,,,
,,,,,,,,,,,,,,,,,,,,,,,,,,,,,,,,,,,,,,,,,,,5b99c0a6a9c8150001d33bbc,5fb5d99cb10d321e67cdf81e,2020-11-18_18h43.25.664,Colour_Similarity_Experiment,2020.1.2,Win32,60,5fb5945709dec70f2d595766,,,,,,,,,,,,,,,,,,,,FF,,,,,,,,4,1.43747,,,,,,,,,,,,,,,,,,,,,,,,,,,,6,29,-60.5,1,0,0,response3disk,3,6,2.5,1,0,0,rectangle,6,2.5,1,0,0,5,5,"[196,148,267,171,55,213,167,12,286,205,229,274,11,91,182,177,34,319,95,97]",6,2.5,1,0,0,0,101,100,100,21,1,,,,,,,,,,,,,,,,,,,,,
,,,,,,,,,,,,,,,,,,,,,,,,,,,,,,,,,,,,,,,,,,,5b99c0a6a9c8150001d33bbc,5fb5d99cb10d321e67cdf81e,2020-11-18_18h43.25.664,Colour_Similarity_Experiment,2020.1.2,Win32,60,5fb5945709dec70f2d595766,,,,,,,,,,,,,,,,,,,,FF,,,,,,,,7,2.241905,,,,,,,,,,,,,,,,,,,,,,,,,,,,6,52,73.5,1,0,0,response1disk,2,6,0.5,1,0,0,rectangle,6,0.5,1,0,0,5,1,"[196,148,267,171,55,213,167,12,286,205,229,274,11,91,182,177,34,319,95,97]",6,0.5,1,0,0,0,102,101,101,112,1,,,,,,,,,,,,,,,,,,,,,
,,,,,,,,,,,,,,,,,,,,,,,,,,,,,,,,,,,,,,,,,,,5b99c0a6a9c8150001d33bbc,5fb5d99cb10d321e67cdf81e,2020-11-18_18h43.25.664,Colour_Similarity_Experiment,2020.1.2,Win32,60,5fb5945709dec70f2d595766,,,,,,,,,,,,,,,,,,,,PF,,,,,,,,0,1.319455,,,,,,,,,,,,,,,,,,,,,,,,,,,,8,-42,86.5,1,0,0,response7disk,8,6,1.5,1,0,0,rectangle,6,1.5,1,0,0,5,1,"[196,148,267,171,55,213,167,12,286,205,229,274,11,91,182,177,34,319,95,97]",6,1.5,1,0,0,0,103,102,102,153,1,,,,,,,,,,,,,,,,,,,,,
,,,,,,,,,,,,,,,,,,,,,,,,,,,,,,,,,,,,,,,,,,,5b99c0a6a9c8150001d33bbc,5fb5d99cb10d321e67cdf81e,2020-11-18_18h43.25.664,Colour_Similarity_Experiment,2020.1.2,Win32,60,5fb5945709dec70f2d595766,,,,,,,,,,,,,,,,,,,,FF,,,,,,,,4,1.386365,,,,,,,,,,,,,,,,,,,,,,,,,,,,4,31,-53.5,1,0,0,response3disk,7,15,12.5,1,0,0,rectangle,15,12.5,1,0,0,5,0,"[196,148,267,171,55,213,167,12,286,205,229,274,11,91,182,177,34,319,95,97]",15,12.5,1,0,0,0,104,103,103,87,1,,,,,,,,,,,,,,,,,,,,,
,,,,,,,,,,,,,,,,,,,,,,,,,,,,,,,,,,,,,,,,,,,5b99c0a6a9c8150001d33bbc,5fb5d99cb10d321e67cdf81e,2020-11-18_18h43.25.664,Colour_Similarity_Experiment,2020.1.2,Win32,60,5fb5945709dec70f2d595766,,,,,,,,,,,,,,,,,,,,FF,,,,,,,,5,1.123115,,,,,,,,,,,,,,,,,,,,,,,,,,,,8,48,-47.5,1,0,0,response3disk,7,24,-8.5,1,0,0,rectangle,24,-8.5,1,0,0,5,1,"[196,148,267,171,55,213,167,12,286,205,229,274,11,91,182,177,34,319,95,97]",24,-8.5,1,0,0,0,105,104,104,86,1,,,,,,,,,,,,,,,,,,,,,
,,,,,,,,,,,,,,,,,,,,,,,,,,,,,,,,,,,,,,,,,,,5b99c0a6a9c8150001d33bbc,5fb5d99cb10d321e67cdf81e,2020-11-18_18h43.25.664,Colour_Similarity_Experiment,2020.1.2,Win32,60,5fb5945709dec70f2d595766,,,,,,,,,,,,,,,,,,,,PF,,,,,,,,7,1.380085,,,,,,,,,,,,,,,,,,,,,,,,,,,,8,27,81.5,1,0,0,response1disk,3,16,4.5,1,0,0,rectangle,16,4.5,1,0,0,5,7,"[196,148,267,171,55,213,167,12,286,205,229,274,11,91,182,177,34,319,95,97]",16,4.5,1,0,0,0,106,105,105,71,1,,,,,,,,,,,,,,,,,,,,,
,,,,,,,,,,,,,,,,,,,,,,,,,,,,,,,,,,,,,,,,,,,5b99c0a6a9c8150001d33bbc,5fb5d99cb10d321e67cdf81e,2020-11-18_18h43.25.664,Colour_Similarity_Experiment,2020.1.2,Win32,60,5fb5945709dec70f2d595766,,,,,,,,,,,,,,,,,,,,FF,,,,,,,,6,1.05897,,,,,,,,,,,,,,,,,,,,,,,,,,,,7,43,38.5,1,0,0,response1disk,8,7,2.5,1,0,0,rectangle,7,2.5,1,0,0,5,1,"[196,148,267,171,55,213,167,12,286,205,229,274,11,91,182,177,34,319,95,97]",7,2.5,1,0,0,0,107,106,106,97,1,,,,,,,,,,,,,,,,,,,,,
,,,,,,,,,,,,,,,,,,,,,,,,,,,,,,,,,,,,,,,,,,,5b99c0a6a9c8150001d33bbc,5fb5d99cb10d321e67cdf81e,2020-11-18_18h43.25.664,Colour_Similarity_Experiment,2020.1.2,Win32,60,5fb5945709dec70f2d595766,,,,,,,,,,,,,,,,,,,,PF,,,,,,,,6,1.130795,,,,,,,,,,,,,,,,,,,,,,,,,,,,1,51,28.5,1,0,0,response1disk,5,23,-0.5,1,0,0,rectangle,23,-0.5,1,0,0,5,3,"[196,148,267,171,55,213,167,12,286,205,229,274,11,91,182,177,34,319,95,97]",23,-0.5,1,0,0,0,108,107,107,28,1,,,,,,,,,,,,,,,,,,,,,
,,,,,,,,,,,,,,,,,,,,,,,,,,,,,,,,,,,,,,,,,,,5b99c0a6a9c8150001d33bbc,5fb5d99cb10d321e67cdf81e,2020-11-18_18h43.25.664,Colour_Similarity_Experiment,2020.1.2,Win32,60,5fb5945709dec70f2d595766,,,,,,,,,,,,,,,,,,,,FF,,,,,,,,4,1.892375,,,,,,,,,,,,,,,,,,,,,,,,,,,,1,19,-80.5,1,0,0,response3disk,2,9,0.5,1,0,0,rectangle,9,0.5,1,0,0,5,1,"[196,148,267,171,55,213,167,12,286,205,229,274,11,91,182,177,34,319,95,97]",9,0.5,1,0,0,0,109,108,108,2,1,,,,,,,,,,,,,,,,,,,,,
,,,,,,,,,,,,,,,,,,,,,,,,,,,,,,,,,,,,,,,,,,,5b99c0a6a9c8150001d33bbc,5fb5d99cb10d321e67cdf81e,2020-11-18_18h43.25.664,Colour_Similarity_Experiment,2020.1.2,Win32,60,5fb5945709dec70f2d595766,,,,,,,,,,,,,,,,,,,,PF,,,,,,,,5,1.68734,,,,,,,,,,,,,,,,,,,,,,,,,,,,7,58,-45.5,1,0,0,response3disk,3,1,4.5,1,0,0,rectangle,1,4.5,1,0,0,5,0,"[196,148,267,171,55,213,167,12,286,205,229,274,11,91,182,177,34,319,95,97]",1,4.5,1,0,0,0,110,109,109,81,1,,,,,,,,,,,,,,,,,,,,,
,,,,,,,,,,,,,,,,,,,,,,,,,,,,,,,,,,,,,,,,,,,5b99c0a6a9c8150001d33bbc,5fb5d99cb10d321e67cdf81e,2020-11-18_18h43.25.664,Colour_Similarity_Experiment,2020.1.2,Win32,60,5fb5945709dec70f2d595766,,,,,,,,,,,,,,,,,,,,FF,,,,,,,,7,1.700735,,,,,,,,,,,,,,,,,,,,,,,,,,,,3,42,74.5,1,0,0,response1disk,2,16,-5.5,1,0,0,rectangle,16,-5.5,1,0,0,5,6,"[196,148,267,171,55,213,167,12,286,205,229,274,11,91,182,177,34,319,95,97]",16,-5.5,1,0,0,0,111,110,110,93,1,,,,,,,,,,,,,,,,,,,,,
,,,,,,,,,,,,,,,,,,,,,,,,,,,,,,,,,,,,,,,,,,,5b99c0a6a9c8150001d33bbc,5fb5d99cb10d321e67cdf81e,2020-11-18_18h43.25.664,Colour_Similarity_Experiment,2020.1.2,Win32,60,5fb5945709dec70f2d595766,,,,,,,,,,,,,,,,,,,,PF,,,,,,,,7,1.414455,,,,,,,,,,,,,,,,,,,,,,,,,,,,9,50,84.5,1,0,0,response1disk,5,12,-5.5,1,0,0,rectangle,12,-5.5,1,0,0,5,4,"[196,148,267,171,55,213,167,12,286,205,229,274,11,91,182,177,34,319,95,97]",12,-5.5,1,0,0,0,112,111,111,134,1,,,,,,,,,,,,,,,,,,,,,
,,,,,,,,,,,,,,,,,,,,,,,,,,,,,,,,,,,,,,,,,,,5b99c0a6a9c8150001d33bbc,5fb5d99cb10d321e67cdf81e,2020-11-18_18h43.25.664,Colour_Similarity_Experiment,2020.1.2,Win32,60,5fb5945709dec70f2d595766,,,,,,,,,,,,,,,,,,,,PF,,,,,,,,5,1.622115,,,,,,,,,,,,,,,,,,,,,,,,,,,,6,72,-44.5,1,0,0,response3disk,4,22,-4.5,1,0,0,rectangle,22,-4.5,1,0,0,5,2,"[196,148,267,171,55,213,167,12,286,205,229,274,11,91,182,177,34,319,95,97]",22,-4.5,1,0,0,0,113,112,112,33,1,,,,,,,,,,,,,,,,,,,,,
,,,,,,,,,,,,,,,,,,,,,,,,,,,,,,,,,,,,,,,,,,,5b99c0a6a9c8150001d33bbc,5fb5d99cb10d321e67cdf81e,2020-11-18_18h43.25.664,Colour_Similarity_Experiment,2020.1.2,Win32,60,5fb5945709dec70f2d595766,,,,,,,,,,,,,,,,,,,,FF,,,,,,,,5,1.148665,,,,,,,,,,,,,,,,,,,,,,,,,,,,2,58,-37.5,1,0,0,response3disk,4,17,-1.5,1,0,0,rectangle,17,-1.5,1,0,0,5,3,"[196,148,267,171,55,213,167,12,286,205,229,274,11,91,182,177,34,319,95,97]",17,-1.5,1,0,0,0,114,113,113,145,1,,,,,,,,,,,,,,,,,,,,,
,,,,,,,,,,,,,,,,,,,,,,,,,,,,,,,,,,,,,,,,,,,5b99c0a6a9c8150001d33bbc,5fb5d99cb10d321e67cdf81e,2020-11-18_18h43.25.664,Colour_Similarity_Experiment,2020.1.2,Win32,60,5fb5945709dec70f2d595766,,,,,,,,,,,,,,,,,,,,FF,,,,,,,,0,1.583125,,,,,,,,,,,,,,,,,,,,,,,,,,,,7,-38,71.5,1,0,0,response7disk,7,-3,-6.5,1,0,0,rectangle,-3,-6.5,1,0,0,5,5,"[196,148,267,171,55,213,167,12,286,205,229,274,11,91,182,177,34,319,95,97]",-3,-6.5,1,0,0,0,115,114,114,34,1,,,,,,,,,,,,,,,,,,,,,
,,,,,,,,,,,,,,,,,,,,,,,,,,,,,,,,,,,,,,,,,,,5b99c0a6a9c8150001d33bbc,5fb5d99cb10d321e67cdf81e,2020-11-18_18h43.25.664,Colour_Similarity_Experiment,2020.1.2,Win32,60,5fb5945709dec70f2d595766,,,,,,,,,,,,,,,,,,,,FF,,,,,,,,6,1.708255,,,,,,,,,,,,,,,,,,,,,,,,,,,,8,58,29.5,1,0,0,response1disk,1,1,-4.5,1,0,0,rectangle,1,-4.5,1,0,0,5,7,"[196,148,267,171,55,213,167,12,286,205,229,274,11,91,182,177,34,319,95,97]",1,-4.5,1,0,0,0,116,115,115,20,1,,,,,,,,,,,,,,,,,,,,,
,,,,,,,,,,,,,,,,,,,,,,,,,,,,,,,,,,,,,,,,,,,5b99c0a6a9c8150001d33bbc,5fb5d99cb10d321e67cdf81e,2020-11-18_18h43.25.664,Colour_Similarity_Experiment,2020.1.2,Win32,60,5fb5945709dec70f2d595766,,,,,,,,,,,,,,,,,,,,PF,,,,,,,,0,1.430175,,,,,,,,,,,,,,,,,,,,,,,,,,,,4,-28,59.5,1,0,0,response7disk,3,-2,-4.5,1,0,0,rectangle,-2,-4.5,1,0,0,5,0,"[196,148,267,171,55,213,167,12,286,205,229,274,11,91,182,177,34,319,95,97]",-2,-4.5,1,0,0,0,117,116,116,89,1,,,,,,,,,,,,,,,,,,,,,
,,,,,,,,,,,,,,,,,,,,,,,,,,,,,,,,,,,,,,,,,,,5b99c0a6a9c8150001d33bbc,5fb5d99cb10d321e67cdf81e,2020-11-18_18h43.25.664,Colour_Similarity_Experiment,2020.1.2,Win32,60,5fb5945709dec70f2d595766,,,,,,,,,,,,,,,,,,,,PF,,,,,,,,1,1.094795,,,,,,,,,,,,,,,,,,,,,,,,,,,,3,-31,19.5,1,0,0,response7disk,4,-4,5.5,1,0,0,rectangle,-4,5.5,1,0,0,5,2,"[196,148,267,171,55,213,167,12,286,205,229,274,11,91,182,177,34,319,95,97]",-4,5.5,1,0,0,0,118,117,117,30,1,,,,,,,,,,,,,,,,,,,,,
,,,,,,,,,,,,,,,,,,,,,,,,,,,,,,,,,,,,,,,,,,,5b99c0a6a9c8150001d33bbc,5fb5d99cb10d321e67cdf81e,2020-11-18_18h43.25.664,Colour_Similarity_Experiment,2020.1.2,Win32,60,5fb5945709dec70f2d595766,,,,,,,,,,,,,,,,,,,,PF,,,,,,,,4,1.412395,,,,,,,,,,,,,,,,,,,,,,,,,,,,9,36,-61.5,1,0,0,response3disk,1,4,1.5,1,0,0,rectangle,4,1.5,1,0,0,5,7,"[196,148,267,171,55,213,167,12,286,205,229,274,11,91,182,177,34,319,95,97]",4,1.5,1,0,0,0,119,118,118,74,1,,,,,,,,,,,,,,,,,,,,,
,,,,,,,,,,,,,,,,,,,,,,,,,,,,,,,,,,,,,,,,,,,5b99c0a6a9c8150001d33bbc,5fb5d99cb10d321e67cdf81e,2020-11-18_18h43.25.664,Colour_Similarity_Experiment,2020.1.2,Win32,60,5fb5945709dec70f2d595766,,,,,,,,,,,,,,,,,,,,FF,,,,,,,,7,1.45719,,,,,,,,,,,,,,,,,,,,,,,,,,,,3,47,73.5,1,0,0,response1disk,9,19,10.5,1,0,0,rectangle,19,10.5,1,0,0,5,4,"[196,148,267,171,55,213,167,12,286,205,229,274,11,91,182,177,34,319,95,97]",19,10.5,1,0,0,0,120,119,119,143,1,,,,,,,,,,,,,,,,,,,,,
,,,,,,,,,,,,,,,,,,,,,,,,,,,,,,,,,,,,,,,,,,,5b99c0a6a9c8150001d33bbc,5fb5d99cb10d321e67cdf81e,2020-11-18_18h43.25.664,Colour_Similarity_Experiment,2020.1.2,Win32,60,5fb5945709dec70f2d595766,,,,,,,,,,,,,,,,,,,,FF,,,,,,,,7,1.697695,,,,,,,,,,,,,,,,,,,,,,,,,,,,7,42,62.5,1,0,0,response1disk,1,9,-1.5,1,0,0,rectangle,9,-1.5,1,0,0,5,3,"[196,148,267,171,55,213,167,12,286,205,229,274,11,91,182,177,34,319,95,97]",9,-1.5,1,0,0,0,121,120,120,132,1,,,,,,,,,,,,,,,,,,,,,
,,,,,,,,,,,,,,,,,,,,,,,,,,,,,,,,,,,,,,,,,,,5b99c0a6a9c8150001d33bbc,5fb5d99cb10d321e67cdf81e,2020-11-18_18h43.25.664,Colour_Similarity_Experiment,2020.1.2,Win32,60,5fb5945709dec70f2d595766,,,,,,,,,,,,,,,,,,,,PF,,,,,,,,3,1.637185,,,,,,,,,,,,,,,,,,,,,,,,,,,,5,-46,-78.5,1,0,0,response5disk,3,4,-6.5,1,0,0,rectangle,4,-6.5,1,0,0,5,1,"[196,148,267,171,55,213,167,12,286,205,229,274,11,91,182,177,34,319,95,97]",4,-6.5,1,0,0,0,122,121,121,109,1,,,,,,,,,,,,,,,,,,,,,
,,,,,,,,,,,,,,,,,,,,,,,,,,,,,,,,,,,,,,,,,,,5b99c0a6a9c8150001d33bbc,5fb5d99cb10d321e67cdf81e,2020-11-18_18h43.25.664,Colour_Similarity_Experiment,2020.1.2,Win32,60,5fb5945709dec70f2d595766,,,,,,,,,,,,,,,,,,,,PF,,,,,,,,4,1.723465,,,,,,,,,,,,,,,,,,,,,,,,,,,,2,45,-59.5,1,0,0,response3disk,6,10,7.5,1,0,0,rectangle,10,7.5,1,0,0,5,3,"[196,148,267,171,55,213,167,12,286,205,229,274,11,91,182,177,34,319,95,97]",10,7.5,1,0,0,0,123,122,122,113,1,,,,,,,,,,,,,,,,,,,,,
,,,,,,,,,,,,,,,,,,,,,,,,,,,,,,,,,,,,,,,,,,,5b99c0a6a9c8150001d33bbc,5fb5d99cb10d321e67cdf81e,2020-11-18_18h43.25.664,Colour_Similarity_Experiment,2020.1.2,Win32,60,5fb5945709dec70f2d595766,,,,,,,,,,,,,,,,,,,,PF,,,,,,,,6,1.17735,,,,,,,,,,,,,,,,,,,,,,,,,,,,1,62,21.5,1,0,0,response1disk,9,-2,0.5,1,0,0,rectangle,-2,0.5,1,0,0,5,0,"[196,148,267,171,55,213,167,12,286,205,229,274,11,91,182,177,34,319,95,97]",-2,0.5,1,0,0,0,124,123,123,15,1,,,,,,,,,,,,,,,,,,,,,
,,,,,,,,,,,,,,,,,,,,,,,,,,,,,,,,,,,,,,,,,,,5b99c0a6a9c8150001d33bbc,5fb5d99cb10d321e67cdf81e,2020-11-18_18h43.25.664,Colour_Similarity_Experiment,2020.1.2,Win32,60,5fb5945709dec70f2d595766,,,,,,,,,,,,,,,,,,,,FF,,,,,,,,0,1.409465,,,,,,,,,,,,,,,,,,,,,,,,,,,,9,-25,82.5,1,0,0,response7disk,9,-1,1.5,1,0,0,rectangle,-1,1.5,1,0,0,5,2,"[196,148,267,171,55,213,167,12,286,205,229,274,11,91,182,177,34,319,95,97]",-1,1.5,1,0,0,0,125,124,124,17,1,,,,,,,,,,,,,,,,,,,,,
,,,,,,,,,,,,,,,,,,,,,,,,,,,,,,,,,,,,,,,,,,,5b99c0a6a9c8150001d33bbc,5fb5d99cb10d321e67cdf81e,2020-11-18_18h43.25.664,Colour_Similarity_Experiment,2020.1.2,Win32,60,5fb5945709dec70f2d595766,,,,,,,,,,,,,,,,,,,,PF,,,,,,,,3,1.369025,,,,,,,,,,,,,,,,,,,,,,,,,,,,3,-30,-62.5,1,0,0,response5disk,8,-4,-4.5,1,0,0,rectangle,-4,-4.5,1,0,0,5,4,"[196,148,267,171,55,213,167,12,286,205,229,274,11,91,182,177,34,319,95,97]",-4,-4.5,1,0,0,0,126,125,125,3,1,,,,,,,,,,,,,,,,,,,,,
,,,,,,,,,,,,,,,,,,,,,,,,,,,,,,,,,,,,,,,,,,,5b99c0a6a9c8150001d33bbc,5fb5d99cb10d321e67cdf81e,2020-11-18_18h43.25.664,Colour_Similarity_Experiment,2020.1.2,Win32,60,5fb5945709dec70f2d595766,,,,,,,,,,,,,,,,,,,,PF,,,,,,,,7,1.383165,,,,,,,,,,,,,,,,,,,,,,,,,,,,8,85,104.5,1,0,0,response1disk,4,14,2.5,1,0,0,rectangle,14,2.5,1,0,0,5,4,"[196,148,267,171,55,213,167,12,286,205,229,274,11,91,182,177,34,319,95,97]",14,2.5,1,0,0,0,127,126,126,78,1,,,,,,,,,,,,,,,,,,,,,
,,,,,,,,,,,,,,,,,,,,,,,,,,,,,,,,,,,,,,,,,,,5b99c0a6a9c8150001d33bbc,5fb5d99cb10d321e67cdf81e,2020-11-18_18h43.25.664,Colour_Similarity_Experiment,2020.1.2,Win32,60,5fb5945709dec70f2d595766,,,,,,,,,,,,,,,,,,,,PF,,,,,,,,7,1.719525,,,,,,,,,,,,,,,,,,,,,,,,,,,,1,43,55.5,1,0,0,response1disk,6,17,-5.5,1,0,0,rectangle,17,-5.5,1,0,0,5,4,"[196,148,267,171,55,213,167,12,286,205,229,274,11,91,182,177,34,319,95,97]",17,-5.5,1,0,0,0,128,127,127,144,1,,,,,,,,,,,,,,,,,,,,,
,,,,,,,,,,,,,,,,,,,,,,,,,,,,,,,,,,,,,,,,,,,5b99c0a6a9c8150001d33bbc,5fb5d99cb10d321e67cdf81e,2020-11-18_18h43.25.664,Colour_Similarity_Experiment,2020.1.2,Win32,60,5fb5945709dec70f2d595766,,,,,,,,,,,,,,,,,,,,FF,,,,,,,,0,1.449375,,,,,,,,,,,,,,,,,,,,,,,,,,,,6,-37,60.5,1,0,0,response7disk,6,-4,-5.5,1,0,0,rectangle,-4,-5.5,1,0,0,5,1,"[196,148,267,171,55,213,167,12,286,205,229,274,11,91,182,177,34,319,95,97]",-4,-5.5,1,0,0,0,129,128,128,91,1,,,,,,,,,,,,,,,,,,,,,
,,,,,,,,,,,,,,,,,,,,,,,,,,,,,,,,,,,,,,,,,,,5b99c0a6a9c8150001d33bbc,5fb5d99cb10d321e67cdf81e,2020-11-18_18h43.25.664,Colour_Similarity_Experiment,2020.1.2,Win32,60,5fb5945709dec70f2d595766,,,,,,,,,,,,,,,,,,,,FF,,,,,,,,6,1.39124,,,,,,,,,,,,,,,,,,,,,,,,,,,,5,58,22.5,1,0,0,response1disk,1,4,1.5,1,0,0,rectangle,4,1.5,1,0,0,5,0,"[196,148,267,171,55,213,167,12,286,205,229,274,11,91,182,177,34,319,95,97]",4,1.5,1,0,0,0,130,129,129,131,1,,,,,,,,,,,,,,,,,,,,,
,,,,,,,,,,,,,,,,,,,,,,,,,,,,,,,,,,,,,,,,,,,5b99c0a6a9c8150001d33bbc,5fb5d99cb10d321e67cdf81e,2020-11-18_18h43.25.664,Colour_Similarity_Experiment,2020.1.2,Win32,60,5fb5945709dec70f2d595766,,,,,,,,,,,,,,,,,,,,PF,,,,,,,,3,1.311455,,,,,,,,,,,,,,,,,,,,,,,,,,,,5,-31,-61.5,1,0,0,response5disk,4,5,-4.5,1,0,0,rectangle,5,-4.5,1,0,0,5,4,"[196,148,267,171,55,213,167,12,286,205,229,274,11,91,182,177,34,319,95,97]",5,-4.5,1,0,0,0,131,130,130,54,1,,,,,,,,,,,,,,,,,,,,,
,,,,,,,,,,,,,,,,,,,,,,,,,,,,,,,,,,,,,,,,,,,5b99c0a6a9c8150001d33bbc,5fb5d99cb10d321e67cdf81e,2020-11-18_18h43.25.664,Colour_Similarity_Experiment,2020.1.2,Win32,60,5fb5945709dec70f2d595766,,,,,,,,,,,,,,,,,,,,FF,,,,,,,,6,1.101315,,,,,,,,,,,,,,,,,,,,,,,,,,,,5,69,43.5,1,0,0,response1disk,2,24,-0.5,1,0,0,rectangle,24,-0.5,1,0,0,5,4,"[196,148,267,171,55,213,167,12,286,205,229,274,11,91,182,177,34,319,95,97]",24,-0.5,1,0,0,0,132,131,131,55,1,,,,,,,,,,,,,,,,,,,,,
,,,,,,,,,,,,,,,,,,,,,,,,,,,,,,,,,,,,,,,,,,,5b99c0a6a9c8150001d33bbc,5fb5d99cb10d321e67cdf81e,2020-11-18_18h43.25.664,Colour_Similarity_Experiment,2020.1.2,Win32,60,5fb5945709dec70f2d595766,,,,,,,,,,,,,,,,,,,,FF,,,,,,,,6,1.349485,,,,,,,,,,,,,,,,,,,,,,,,,,,,6,47,39.5,1,0,0,response1disk,9,-1,-4.5,1,0,0,rectangle,-1,-4.5,1,0,0,5,5,"[196,148,267,171,55,213,167,12,286,205,229,274,11,91,182,177,34,319,95,97]",-1,-4.5,1,0,0,0,133,132,132,160,1,,,,,,,,,,,,,,,,,,,,,
,,,,,,,,,,,,,,,,,,,,,,,,,,,,,,,,,,,,,,,,,,,5b99c0a6a9c8150001d33bbc,5fb5d99cb10d321e67cdf81e,2020-11-18_18h43.25.664,Colour_Similarity_Experiment,2020.1.2,Win32,60,5fb5945709dec70f2d595766,,,,,,,,,,,,,,,,,,,,PF,,,,,,,,6,1.04486,,,,,,,,,,,,,,,,,,,,,,,,,,,,2,57,33.5,1,0,0,response1disk,4,18,3.5,1,0,0,rectangle,18,3.5,1,0,0,5,2,"[196,148,267,171,55,213,167,12,286,205,229,274,11,91,182,177,34,319,95,97]",18,3.5,1,0,0,0,134,133,133,127,1,,,,,,,,,,,,,,,,,,,,,
,,,,,,,,,,,,,,,,,,,,,,,,,,,,,,,,,,,,,,,,,,,5b99c0a6a9c8150001d33bbc,5fb5d99cb10d321e67cdf81e,2020-11-18_18h43.25.664,Colour_Similarity_Experiment,2020.1.2,Win32,60,5fb5945709dec70f2d595766,,,,,,,,,,,,,,,,,,,,PF,,,,,,,,3,1.44939,,,,,,,,,,,,,,,,,,,,,,,,,,,,8,-27,-68.5,1,0,0,response5disk,9,-5,-11.5,1,0,0,rectangle,-5,-11.5,1,0,0,5,4,"[196,148,267,171,55,213,167,12,286,205,229,274,11,91,182,177,34,319,95,97]",-5,-11.5,1,0,0,0,135,134,134,42,1,,,,,,,,,,,,,,,,,,,,,
,,,,,,,,,,,,,,,,,,,,,,,,,,,,,,,,,,,,,,,,,,,5b99c0a6a9c8150001d33bbc,5fb5d99cb10d321e67cdf81e,2020-11-18_18h43.25.664,Colour_Similarity_Experiment,2020.1.2,Win32,60,5fb5945709dec70f2d595766,,,,,,,,,,,,,,,,,,,,FF,,,,,,,,4,1.091855,,,,,,,,,,,,,,,,,,,,,,,,,,,,7,36,-67.5,1,0,0,response3disk,4,8,2.5,1,0,0,rectangle,8,2.5,1,0,0,5,4,"[196,148,267,171,55,213,167,12,286,205,229,274,11,91,182,177,34,319,95,97]",8,2.5,1,0,0,0,136,135,135,158,1,,,,,,,,,,,,,,,,,,,,,
,,,,,,,,,,,,,,,,,,,,,,,,,,,,,,,,,,,,,,,,,,,5b99c0a6a9c8150001d33bbc,5fb5d99cb10d321e67cdf81e,2020-11-18_18h43.25.664,Colour_Similarity_Experiment,2020.1.2,Win32,60,5fb5945709dec70f2d595766,,,,,,,,,,,,,,,,,,,,PF,,,,,,,,6,1.95824,,,,,,,,,,,,,,,,,,,,,,,,,,,,8,56,19.5,1,0,0,response1disk,6,-14,-5.5,1,0,0,rectangle,-14,-5.5,1,0,0,5,1,"[196,148,267,171,55,213,167,12,286,205,229,274,11,91,182,177,34,319,95,97]",-14,-5.5,1,0,0,0,137,136,136,161,1,,,,,,,,,,,,,,,,,,,,,
,,,,,,,,,,,,,,,,,,,,,,,,,,,,,,,,,,,,,,,,,,,5b99c0a6a9c8150001d33bbc,5fb5d99cb10d321e67cdf81e,2020-11-18_18h43.25.664,Colour_Similarity_Experiment,2020.1.2,Win32,60,5fb5945709dec70f2d595766,,,,,,,,,,,,,,,,,,,,PF,,,,,,,,4,1.17695,,,,,,,,,,,,,,,,,,,,,,,,,,,,3,42,-54.5,1,0,0,response3disk,9,-11,-9.5,1,0,0,rectangle,-11,-9.5,1,0,0,5,6,"[196,148,267,171,55,213,167,12,286,205,229,274,11,91,182,177,34,319,95,97]",-11,-9.5,1,0,0,0,138,137,137,79,1,,,,,,,,,,,,,,,,,,,,,
,,,,,,,,,,,,,,,,,,,,,,,,,,,,,,,,,,,,,,,,,,,5b99c0a6a9c8150001d33bbc,5fb5d99cb10d321e67cdf81e,2020-11-18_18h43.25.664,Colour_Similarity_Experiment,2020.1.2,Win32,60,5fb5945709dec70f2d595766,,,,,,,,,,,,,,,,,,,,FF,,,,,,,,4,1.33464,,,,,,,,,,,,,,,,,,,,,,,,,,,,4,47,-61.5,1,0,0,response3disk,6,26,0.5,1,0,0,rectangle,26,0.5,1,0,0,5,0,"[196,148,267,171,55,213,167,12,286,205,229,274,11,91,182,177,34,319,95,97]",26,0.5,1,0,0,0,139,138,138,122,1,,,,,,,,,,,,,,,,,,,,,
,,,,,,,,,,,,,,,,,,,,,,,,,,,,,,,,,,,,,,,,,,,5b99c0a6a9c8150001d33bbc,5fb5d99cb10d321e67cdf81e,2020-11-18_18h43.25.664,Colour_Similarity_Experiment,2020.1.2,Win32,60,5fb5945709dec70f2d595766,,,,,,,,,,,,,,,,,,,,FF,,,,,,,,3,1.65186,,,,,,,,,,,,,,,,,,,,,,,,,,,,3,-41,-76.5,1,0,0,response5disk,4,-6,5.5,1,0,0,rectangle,-6,5.5,1,0,0,5,4,"[196,148,267,171,55,213,167,12,286,205,229,274,11,91,182,177,34,319,95,97]",-6,5.5,1,0,0,0,140,139,139,110,1,,,,,,,,,,,,,,,,,,,,,
,,,,,,,,,,,,,,,,,,,,,,,,,,,,,,,,,,,,,,,,,,,5b99c0a6a9c8150001d33bbc,5fb5d99cb10d321e67cdf81e,2020-11-18_18h43.25.664,Colour_Similarity_Experiment,2020.1.2,Win32,60,5fb5945709dec70f2d595766,,,,,,,,,,,,,,,,,,,,PF,,,,,,,,6,2.15942,,,,,,,,,,,,,,,,,,,,,,,,,,,,6,45,22.5,1,0,0,response1disk,9,5,-5.5,1,0,0,rectangle,5,-5.5,1,0,0,5,1,"[196,148,267,171,55,213,167,12,286,205,229,274,11,91,182,177,34,319,95,97]",5,-5.5,1,0,0,0,141,140,140,45,1,,,,,,,,,,,,,,,,,,,,,
,,,,,,,,,,,,,,,,,,,,,,,,,,,,,,,,,,,,,,,,,,,5b99c0a6a9c8150001d33bbc,5fb5d99cb10d321e67cdf81e,2020-11-18_18h43.25.664,Colour_Similarity_Experiment,2020.1.2,Win32,60,5fb5945709dec70f2d595766,,,,,,,,,,,,,,,,,,,,FF,,,,,,,,3,1.099955,,,,,,,,,,,,,,,,,,,,,,,,,,,,5,-43,-73.5,1,0,0,response5disk,6,-14,-7.5,1,0,0,rectangle,-14,-7.5,1,0,0,5,2,"[196,148,267,171,55,213,167,12,286,205,229,274,11,91,182,177,34,319,95,97]",-14,-7.5,1,0,0,0,142,141,141,12,1,,,,,,,,,,,,,,,,,,,,,
,,,,,,,,,,,,,,,,,,,,,,,,,,,,,,,,,,,,,,,,,,,5b99c0a6a9c8150001d33bbc,5fb5d99cb10d321e67cdf81e,2020-11-18_18h43.25.664,Colour_Similarity_Experiment,2020.1.2,Win32,60,5fb5945709dec70f2d595766,,,,,,,,,,,,,,,,,,,,FF,,,,,,,,6,1.49674,,,,,,,,,,,,,,,,,,,,,,,,,,,,8,68,33.5,1,0,0,response1disk,4,11,-2.5,1,0,0,rectangle,11,-2.5,1,0,0,5,7,"[196,148,267,171,55,213,167,12,286,205,229,274,11,91,182,177,34,319,95,97]",11,-2.5,1,0,0,0,143,142,142,88,1,,,,,,,,,,,,,,,,,,,,,
,,,,,,,,,,,,,,,,,,,,,,,,,,,,,,,,,,,,,,,,,,,5b99c0a6a9c8150001d33bbc,5fb5d99cb10d321e67cdf81e,2020-11-18_18h43.25.664,Colour_Similarity_Experiment,2020.1.2,Win32,60,5fb5945709dec70f2d595766,,,,,,,,,,,,,,,,,,,,PF,,,,,,,,2,1.451125,,,,,,,,,,,,,,,,,,,,,,,,,,,,9,-66,-47.5,1,0,0,response5disk,8,-14,-2.5,1,0,0,rectangle,-14,-2.5,1,0,0,5,7,"[196,148,267,171,55,213,167,12,286,205,229,274,11,91,182,177,34,319,95,97]",-14,-2.5,1,0,0,0,144,143,143,67,1,,,,,,,,,,,,,,,,,,,,,
,,,,,,,,,,,,,,,,,,,,,,,,,,,,,,,,,,,,,,,,,,,5b99c0a6a9c8150001d33bbc,5fb5d99cb10d321e67cdf81e,2020-11-18_18h43.25.664,Colour_Similarity_Experiment,2020.1.2,Win32,60,5fb5945709dec70f2d595766,,,,,,,,,,,,,,,,,,,,PF,,,,,,,,6,1.36635,,,,,,,,,,,,,,,,,,,,,,,,,,,,6,48,26.5,1,0,0,response1disk,1,6,-4.5,1,0,0,rectangle,6,-4.5,1,0,0,5,3,"[196,148,267,171,55,213,167,12,286,205,229,274,11,91,182,177,34,319,95,97]",6,-4.5,1,0,0,0,145,144,144,46,1,,,,,,,,,,,,,,,,,,,,,
,,,,,,,,,,,,,,,,,,,,,,,,,,,,,,,,,,,,,,,,,,,5b99c0a6a9c8150001d33bbc,5fb5d99cb10d321e67cdf81e,2020-11-18_18h43.25.664,Colour_Similarity_Experiment,2020.1.2,Win32,60,5fb5945709dec70f2d595766,,,,,,,,,,,,,,,,,,,,FF,,,,,,,,6,1.691235,,,,,,,,,,,,,,,,,,,,,,,,,,,,1,59,27.5,1,0,0,response1disk,4,16,-12.5,1,0,0,rectangle,16,-12.5,1,0,0,5,5,"[196,148,267,171,55,213,167,12,286,205,229,274,11,91,182,177,34,319,95,97]",16,-12.5,1,0,0,0,146,145,145,135,1,,,,,,,,,,,,,,,,,,,,,
,,,,,,,,,,,,,,,,,,,,,,,,,,,,,,,,,,,,,,,,,,,5b99c0a6a9c8150001d33bbc,5fb5d99cb10d321e67cdf81e,2020-11-18_18h43.25.664,Colour_Similarity_Experiment,2020.1.2,Win32,60,5fb5945709dec70f2d595766,,,,,,,,,,,,,,,,,,,,FF,,,,,,,,4,1.985955,,,,,,,,,,,,,,,,,,,,,,,,,,,,8,36,-74.5,1,0,0,response3disk,6,9,3.5,1,0,0,rectangle,9,3.5,1,0,0,5,5,"[196,148,267,171,55,213,167,12,286,205,229,274,11,91,182,177,34,319,95,97]",9,3.5,1,0,0,0,147,146,146,37,1,,,,,,,,,,,,,,,,,,,,,
,,,,,,,,,,,,,,,,,,,,,,,,,,,,,,,,,,,,,,,,,,,5b99c0a6a9c8150001d33bbc,5fb5d99cb10d321e67cdf81e,2020-11-18_18h43.25.664,Colour_Similarity_Experiment,2020.1.2,Win32,60,5fb5945709dec70f2d595766,,,,,,,,,,,,,,,,,,,,FF,,,,,,,,5,1.35468,,,,,,,,,,,,,,,,,,,,,,,,,,,,6,53,-43.5,1,0,0,response3disk,8,18,-3.5,1,0,0,rectangle,-36,-84.5,1,0,0,3,3,"[196,148,267,171,55,213,167,12,286,205,229,274,11,91,182,177,34,319,95,97]",-2,-6.5,1,0,0,0,148,147,147,133,1,response5disk_3,rectangle,,,,,,,,,,,,,,,,,,,
,,,,,,,,,,,,,,,,,,,,,,,,,,,,,,,,,,,,,,,,,,,5b99c0a6a9c8150001d33bbc,5fb5d99cb10d321e67cdf81e,2020-11-18_18h43.25.664,Colour_Similarity_Experiment,2020.1.2,Win32,60,5fb5945709dec70f2d595766,,,,,,,,,,,,,,,,,,,,FF,,,,,,,,3,1.44903,,,,,,,,,,,,,,,,,,,,,,,,,,,,6,-30,-68.5,1,0,0,response5disk,7,4,-7.5,1,0,0,rectangle,4,-7.5,1,0,0,3,1,"[196,148,267,171,55,213,167,12,286,205,229,274,11,91,182,177,34,319,95,97]",4,-7.5,1,0,0,0,149,148,148,18,1,,,,,,,,,,,,,,,,,,,,,
,,,,,,,,,,,,,,,,,,,,,,,,,,,,,,,,,,,,,,,,,,,5b99c0a6a9c8150001d33bbc,5fb5d99cb10d321e67cdf81e,2020-11-18_18h43.25.664,Colour_Similarity_Experiment,2020.1.2,Win32,60,5fb5945709dec70f2d595766,,,,,,,,,,,,,,,,,,,,PF,,,,,,,,3,1.652065,,,,,,,,,,,,,,,,,,,,,,,,,,,,3,-37,-69.5,1,0,0,response5disk,5,-10,-3.5,1,0,0,rectangle,-10,-3.5,1,0,0,3,1,"[196,148,267,171,55,213,167,12,286,205,229,274,11,91,182,177,34,319,95,97]",-10,-3.5,1,0,0,0,150,149,149,66,1,,,,,,,,,,,,,,,,,,,,,
,,,,,,,,,,,,,,,,,,,,,,,,,,,,,,,,,,,,,,,,,,,5b99c0a6a9c8150001d33bbc,5fb5d99cb10d321e67cdf81e,2020-11-18_18h43.25.664,Colour_Similarity_Experiment,2020.1.2,Win32,60,5fb5945709dec70f2d595766,,,,,,,,,,,,,,,,,,,,FF,,,,,,,,5,1.395845,,,,,,,,,,,,,,,,,,,,,,,,,,,,3,64,-24.5,1,0,0,response3disk,6,22,-10.5,1,0,0,rectangle,22,-10.5,1,0,0,3,2,"[196,148,267,171,55,213,167,12,286,205,229,274,11,91,182,177,34,319,95,97]",22,-10.5,1,0,0,0,151,150,150,95,1,,,,,,,,,,,,,,,,,,,,,
,,,,,,,,,,,,,,,,,,,,,,,,,,,,,,,,,,,,,,,,,,,5b99c0a6a9c8150001d33bbc,5fb5d99cb10d321e67cdf81e,2020-11-18_18h43.25.664,Colour_Similarity_Experiment,2020.1.2,Win32,60,5fb5945709dec70f2d595766,,,,,,,,,,,,,,,,,,,,PF,,,,,,,,6,1.888315,,,,,,,,,,,,,,,,,,,,,,,,,,,,8,53,38.5,1,0,0,response1disk,1,17,1.5,1,0,0,rectangle,17,1.5,1,0,0,3,7,"[196,148,267,171,55,213,167,12,286,205,229,274,11,91,182,177,34,319,95,97]",17,1.5,1,0,0,0,152,151,151,57,1,,,,,,,,,,,,,,,,,,,,,
,,,,,,,,,,,,,,,,,,,,,,,,,,,,,,,,,,,,,,,,,,,5b99c0a6a9c8150001d33bbc,5fb5d99cb10d321e67cdf81e,2020-11-18_18h43.25.664,Colour_Similarity_Experiment,2020.1.2,Win32,60,5fb5945709dec70f2d595766,,,,,,,,,,,,,,,,,,,,PF,,,,,,,,2,1.92354,,,,,,,,,,,,,,,,,,,,,,,,,,,,4,-48,-37.5,1,0,0,response5disk,4,-24,-0.5,1,0,0,rectangle,-24,-0.5,1,0,0,3,2,"[196,148,267,171,55,213,167,12,286,205,229,274,11,91,182,177,34,319,95,97]",-24,-0.5,1,0,0,0,153,152,152,70,1,,,,,,,,,,,,,,,,,,,,,
,,,,,,,,,,,,,,,,,,,,,,,,,,,,,,,,,,,,,,,,,,,5b99c0a6a9c8150001d33bbc,5fb5d99cb10d321e67cdf81e,2020-11-18_18h43.25.664,Colour_Similarity_Experiment,2020.1.2,Win32,60,5fb5945709dec70f2d595766,,,,,,,,,,,,,,,,,,,,FF,,,,,,,,0,1.432975,,,,,,,,,,,,,,,,,,,,,,,,,,,,1,-35,72.5,1,0,0,response7disk,1,-2,-1.5,1,0,0,rectangle,-2,-1.5,1,0,0,3,0,"[196,148,267,171,55,213,167,12,286,205,229,274,11,91,182,177,34,319,95,97]",-2,-1.5,1,0,0,0,154,153,153,151,1,,,,,,,,,,,,,,,,,,,,,
,,,,,,,,,,,,,,,,,,,,,,,,,,,,,,,,,,,,,,,,,,,5b99c0a6a9c8150001d33bbc,5fb5d99cb10d321e67cdf81e,2020-11-18_18h43.25.664,Colour_Similarity_Experiment,2020.1.2,Win32,60,5fb5945709dec70f2d595766,,,,,,,,,,,,,,,,,,,,PF,,,,,,,,3,1.19053,,,,,,,,,,,,,,,,,,,,,,,,,,,,2,-34,-51.5,1,0,0,response5disk,9,-10,-0.5,1,0,0,rectangle,-10,-0.5,1,0,0,3,7,"[196,148,267,171,55,213,167,12,286,205,229,274,11,91,182,177,34,319,95,97]",-10,-0.5,1,0,0,0,155,154,154,39,1,,,,,,,,,,,,,,,,,,,,,
,,,,,,,,,,,,,,,,,,,,,,,,,,,,,,,,,,,,,,,,,,,5b99c0a6a9c8150001d33bbc,5fb5d99cb10d321e67cdf81e,2020-11-18_18h43.25.664,Colour_Similarity_Experiment,2020.1.2,Win32,60,5fb5945709dec70f2d595766,,,,,,,,,,,,,,,,,,,,PF,,,,,,,,5,2.82293,,,,,,,,,,,,,,,,,,,,,,,,,,,,4,77,-30.5,1,0,0,response3disk,7,10,-4.5,1,0,0,rectangle,10,-4.5,1,0,0,3,6,"[196,148,267,171,55,213,167,12,286,205,229,274,11,91,182,177,34,319,95,97]",10,-4.5,1,0,0,0,156,155,155,38,1,,,,,,,,,,,,,,,,,,,,,
,,,,,,,,,,,,,,,,,,,,,,,,,,,,,,,,,,,,,,,,,,,5b99c0a6a9c8150001d33bbc,5fb5d99cb10d321e67cdf81e,2020-11-18_18h43.25.664,Colour_Similarity_Experiment,2020.1.2,Win32,60,5fb5945709dec70f2d595766,,,,,,,,,,,,,,,,,,,,PF,,,,,,,,5,1.38682,,,,,,,,,,,,,,,,,,,,,,,,,,,,7,74,-46.5,1,0,0,response3disk,8,17,-6.5,1,0,0,rectangle,17,-6.5,1,0,0,3,6,"[196,148,267,171,55,213,167,12,286,205,229,274,11,91,182,177,34,319,95,97]",17,-6.5,1,0,0,0,157,156,156,140,1,,,,,,,,,,,,,,,,,,,,,
,,,,,,,,,,,,,,,,,,,,,,,,,,,,,,,,,,,,,,,,,,,5b99c0a6a9c8150001d33bbc,5fb5d99cb10d321e67cdf81e,2020-11-18_18h43.25.664,Colour_Similarity_Experiment,2020.1.2,Win32,60,5fb5945709dec70f2d595766,,,,,,,,,,,,,,,,,,,,FF,,,,,,,,6,1.38437,,,,,,,,,,,,,,,,,,,,,,,,,,,,2,71,33.5,1,0,0,response1disk,7,21,-0.5,1,0,0,rectangle,21,-0.5,1,0,0,3,6,"[196,148,267,171,55,213,167,12,286,205,229,274,11,91,182,177,34,319,95,97]",21,-0.5,1,0,0,0,158,157,157,63,1,,,,,,,,,,,,,,,,,,,,,
,,,,,,,,,,,,,,,,,,,,,,,,,,,,,,,,,,,,,,,,,,,5b99c0a6a9c8150001d33bbc,5fb5d99cb10d321e67cdf81e,2020-11-18_18h43.25.664,Colour_Similarity_Experiment,2020.1.2,Win32,60,5fb5945709dec70f2d595766,,,,,,,,,,,,,,,,,,,,FF,,,,,,,,5,1.613495,,,,,,,,,,,,,,,,,,,,,,,,,,,,3,74,-43.5,1,0,0,response3disk,7,0,-3.5,1,0,0,rectangle,0,-3.5,1,0,0,3,7,"[196,148,267,171,55,213,167,12,286,205,229,274,11,91,182,177,34,319,95,97]",0,-3.5,1,0,0,0,159,158,158,118,1,,,,,,,,,,,,,,,,,,,,,
,,,,,,,,,,,,,,,,,,,,,,,,,,,,,,,,,,,,,,,,,,,5b99c0a6a9c8150001d33bbc,5fb5d99cb10d321e67cdf81e,2020-11-18_18h43.25.664,Colour_Similarity_Experiment,2020.1.2,Win32,60,5fb5945709dec70f2d595766,,,,,,,,,,,,,,,,,,,,PF,,,,,,,,7,1.958455,,,,,,,,,,,,,,,,,,,,,,,,,,,,9,46,84.5,1,0,0,response1disk,6,12,5.5,1,0,0,rectangle,12,5.5,1,0,0,3,4,"[196,148,267,171,55,213,167,12,286,205,229,274,11,91,182,177,34,319,95,97]",12,5.5,1,0,0,0,160,159,159,148,1,,,,,,,,,,,,,,,,,,,,,
,,,,,,,,,,,,,,,,,,,,,,,,,,,,,,,,,,,,,,,,,,,5b99c0a6a9c8150001d33bbc,5fb5d99cb10d321e67cdf81e,2020-11-18_18h43.25.664,Colour_Similarity_Experiment,2020.1.2,Win32,60,5fb5945709dec70f2d595766,,,,,,,,,,,,,,,,,,,,PF,,,,,,,,5,2.172705,,,,,,,,,,,,,,,,,,,,,,,,,,,,3,52,-38.5,1,0,0,response3disk,7,14,3.5,1,0,0,rectangle,14,3.5,1,0,0,3,1,"[196,148,267,171,55,213,167,12,286,205,229,274,11,91,182,177,34,319,95,97]",14,3.5,1,0,0,0,161,160,160,41,1,,,,,,,,,,,,,,,,,,,,,
,,,,,,,,,,,,,,,,,,,,,,,,,,,,,,,,,,,,,,,,,,,5b99c0a6a9c8150001d33bbc,5fb5d99cb10d321e67cdf81e,2020-11-18_18h43.25.664,Colour_Similarity_Experiment,2020.1.2,Win32,60,5fb5945709dec70f2d595766,,,,,,,,,,,,,,,,,,,,PF,,,,,,,,6,1.35681,,,,,,,,,,,,,,,,,,,,,,,,,,,,7,58,25.5,1,0,0,response1disk,9,16,0.5,1,0,0,rectangle,16,0.5,1,0,0,3,7,"[196,148,267,171,55,213,167,12,286,205,229,274,11,91,182,177,34,319,95,97]",16,0.5,1,0,0,0,162,161,161,10,1,,,,,,,,,,,,,,,,,,,,,
,,,,,,,,,,,,,,,,,,,,,,,,,,,,,,,,,,,,,,,,,,,5b99c0a6a9c8150001d33bbc,5fb5d99cb10d321e67cdf81e,2020-11-18_18h43.25.664,Colour_Similarity_Experiment,2020.1.2,Win32,60,5fb5945709dec70f2d595766,,,,,,,,,,,,,,,,,,,,,,,,,,,,,,,,,,,,,,,,,,,,,,,,,,,,,,,,,,,,,,,,,,,,,,,,,,,,,,,,,,,,,,,,,,,,0,0,0,0,1,,,,,,,,,,,,,,
,,,,,,,,,,,,,,,,,,,,,,,,,,,,,,,,,,,,,,,,,,,5b99c0a6a9c8150001d33bbc,5fb5d99cb10d321e67cdf81e,2020-11-18_18h43.25.664,Colour_Similarity_Experiment,2020.1.2,Win32,60,5fb5945709dec70f2d595766,,,,,,,,,,,,,,,,,,,,PF,,,,,,,,6,2.187425,,,,,,,,,,,,,,,,,,,,,,,,,,,,9,78,29.5,1,0,0,response1disk,7,25,0.5,1,0,0,rectangle,25,0.5,1,0,0,3,0,"[196,148,267,171,55,213,167,12,286,205,229,274,11,91,182,177,34,319,95,97]",25,0.5,1,0,0,0,163,0,0,121,1,,,,,,,,,,,,,,,,,,,,,
,,,,,,,,,,,,,,,,,,,,,,,,,,,,,,,,,,,,,,,,,,,5b99c0a6a9c8150001d33bbc,5fb5d99cb10d321e67cdf81e,2020-11-18_18h43.25.664,Colour_Similarity_Experiment,2020.1.2,Win32,60,5fb5945709dec70f2d595766,,,,,,,,,,,,,,,,,,,,FF,,,,,,,,6,1.232125,,,,,,,,,,,,,,,,,,,,,,,,,,,,8,56,23.5,1,0,0,response1disk,5,9,-4.5,1,0,0,rectangle,9,-4.5,1,0,0,3,5,"[196,148,267,171,55,213,167,12,286,205,229,274,11,91,182,177,34,319,95,97]",9,-4.5,1,0,0,0,164,1,1,152,1,,,,,,,,,,,,,,,,,,,,,
,,,,,,,,,,,,,,,,,,,,,,,,,,,,,,,,,,,,,,,,,,,5b99c0a6a9c8150001d33bbc,5fb5d99cb10d321e67cdf81e,2020-11-18_18h43.25.664,Colour_Similarity_Experiment,2020.1.2,Win32,60,5fb5945709dec70f2d595766,,,,,,,,,,,,,,,,,,,,FF,,,,,,,,6,1.09728,,,,,,,,,,,,,,,,,,,,,,,,,,,,9,59,33.5,1,0,0,response1disk,7,28,7.5,1,0,0,rectangle,28,7.5,1,0,0,3,2,"[196,148,267,171,55,213,167,12,286,205,229,274,11,91,182,177,34,319,95,97]",28,7.5,1,0,0,0,165,2,2,100,1,,,,,,,,,,,,,,,,,,,,,
,,,,,,,,,,,,,,,,,,,,,,,,,,,,,,,,,,,,,,,,,,,5b99c0a6a9c8150001d33bbc,5fb5d99cb10d321e67cdf81e,2020-11-18_18h43.25.664,Colour_Similarity_Experiment,2020.1.2,Win32,60,5fb5945709dec70f2d595766,,,,,,,,,,,,,,,,,,,,PF,,,,,,,,0,1.408935,,,,,,,,,,,,,,,,,,,,,,,,,,,,5,-24,54.5,1,0,0,response7disk,5,0,9.5,1,0,0,rectangle,0,9.5,1,0,0,3,6,"[196,148,267,171,55,213,167,12,286,205,229,274,11,91,182,177,34,319,95,97]",0,9.5,1,0,0,0,166,3,3,94,1,,,,,,,,,,,,,,,,,,,,,
,,,,,,,,,,,,,,,,,,,,,,,,,,,,,,,,,,,,,,,,,,,5b99c0a6a9c8150001d33bbc,5fb5d99cb10d321e67cdf81e,2020-11-18_18h43.25.664,Colour_Similarity_Experiment,2020.1.2,Win32,60,5fb5945709dec70f2d595766,,,,,,,,,,,,,,,,,,,,FF,,,,,,,,3,1.45832,,,,,,,,,,,,,,,,,,,,,,,,,,,,6,-36,-46.5,1,0,0,response5disk,5,-13,-3.5,1,0,0,rectangle,-103,-18.5,1,0,0,3,2,"[196,148,267,171,55,213,167,12,286,205,229,274,11,91,182,177,34,319,95,97]",-22,9.5,1,0,0,0,167,4,4,126,1,response5disk_3,rectangle,,,,,,,,,,,,,,,,,,,
,,,,,,,,,,,,,,,,,,,,,,,,,,,,,,,,,,,,,,,,,,,5b99c0a6a9c8150001d33bbc,5fb5d99cb10d321e67cdf81e,2020-11-18_18h43.25.664,Colour_Similarity_Experiment,2020.1.2,Win32,60,5fb5945709dec70f2d595766,,,,,,,,,,,,,,,,,,,,PF,,,,,,,,7,1.45887,,,,,,,,,,,,,,,,,,,,,,,,,,,,8,47,51.5,1,0,0,response1disk,2,18,3.5,1,0,0,rectangle,18,3.5,1,0,0,3,1,"[196,148,267,171,55,213,167,12,286,205,229,274,11,91,182,177,34,319,95,97]",18,3.5,1,0,0,0,168,5,5,83,1,,,,,,,,,,,,,,,,,,,,,
,,,,,,,,,,,,,,,,,,,,,,,,,,,,,,,,,,,,,,,,,,,5b99c0a6a9c8150001d33bbc,5fb5d99cb10d321e67cdf81e,2020-11-18_18h43.25.664,Colour_Similarity_Experiment,2020.1.2,Win32,60,5fb5945709dec70f2d595766,,,,,,,,,,,,,,,,,,,,FF,,,,,,,,6,1.14329,,,,,,,,,,,,,,,,,,,,,,,,,,,,1,61,26.5,1,0,0,response1disk,3,27,9.5,1,0,0,rectangle,27,9.5,1,0,0,3,4,"[196,148,267,171,55,213,167,12,286,205,229,274,11,91,182,177,34,319,95,97]",27,9.5,1,0,0,0,169,6,6,99,1,,,,,,,,,,,,,,,,,,,,,
,,,,,,,,,,,,,,,,,,,,,,,,,,,,,,,,,,,,,,,,,,,5b99c0a6a9c8150001d33bbc,5fb5d99cb10d321e67cdf81e,2020-11-18_18h43.25.664,Colour_Similarity_Experiment,2020.1.2,Win32,60,5fb5945709dec70f2d595766,,,,,,,,,,,,,,,,,,,,PF,,,,,,,,6,1.0933,,,,,,,,,,,,,,,,,,,,,,,,,,,,4,55,27.5,1,0,0,response1disk,8,16,0.5,1,0,0,rectangle,16,0.5,1,0,0,3,3,"[196,148,267,171,55,213,167,12,286,205,229,274,11,91,182,177,34,319,95,97]",16,0.5,1,0,0,0,170,7,7,124,1,,,,,,,,,,,,,,,,,,,,,
,,,,,,,,,,,,,,,,,,,,,,,,,,,,,,,,,,,,,,,,,,,5b99c0a6a9c8150001d33bbc,5fb5d99cb10d321e67cdf81e,2020-11-18_18h43.25.664,Colour_Similarity_Experiment,2020.1.2,Win32,60,5fb5945709dec70f2d595766,,,,,,,,,,,,,,,,,,,,FF,,,,,,,,6,1.16808,,,,,,,,,,,,,,,,,,,,,,,,,,,,5,45,20.5,1,0,0,response1disk,7,10,-0.5,1,0,0,rectangle,-21,106.5,1,0,0,0,0,"[196,148,267,171,55,213,167,12,286,205,229,274,11,91,182,177,34,319,95,97]",24,-8.5,1,0,0,0,171,8,8,7,1,response7disk_3,rectangle,,,,,,,,,,,,,,,,,,,
,,,,,,,,,,,,,,,,,,,,,,,,,,,,,,,,,,,,,,,,,,,5b99c0a6a9c8150001d33bbc,5fb5d99cb10d321e67cdf81e,2020-11-18_18h43.25.664,Colour_Similarity_Experiment,2020.1.2,Win32,60,5fb5945709dec70f2d595766,,,,,,,,,,,,,,,,,,,,FF,,,,,,,,5,3.5501,,,,,,,,,,,,,,,,,,,,,,,,,,,,2,86,-34.5,1,0,0,response3disk,5,25,-10.5,1,0,0,rectangle,25,-10.5,1,0,0,0,0,"[196,148,267,171,55,213,167,12,286,205,229,274,11,91,182,177,34,319,95,97]",25,-10.5,1,0,0,0,172,9,9,80,1,,,,,,,,,,,,,,,,,,,,,
,,,,,,,,,,,,,,,,,,,,,,,,,,,,,,,,,,,,,,,,,,,5b99c0a6a9c8150001d33bbc,5fb5d99cb10d321e67cdf81e,2020-11-18_18h43.25.664,Colour_Similarity_Experiment,2020.1.2,Win32,60,5fb5945709dec70f2d595766,,,,,,,,,,,,,,,,,,,,FF,,,,,,,,0,1.33094,,,,,,,,,,,,,,,,,,,,,,,,,,,,4,-36,75.5,1,0,0,response7disk,4,-1,-8.5,1,0,0,rectangle,-1,-8.5,1,0,0,0,4,"[196,148,267,171,55,213,167,12,286,205,229,274,11,91,182,177,34,319,95,97]",-1,-8.5,1,0,0,0,173,10,10,84,1,,,,,,,,,,,,,,,,,,,,,
,,,,,,,,,,,,,,,,,,,,,,,,,,,,,,,,,,,,,,,,,,,5b99c0a6a9c8150001d33bbc,5fb5d99cb10d321e67cdf81e,2020-11-18_18h43.25.664,Colour_Similarity_Experiment,2020.1.2,Win32,60,5fb5945709dec70f2d595766,,,,,,,,,,,,,,,,,,,,PF,,,,,,,,6,1.45052,,,,,,,,,,,,,,,,,,,,,,,,,,,,5,58,36.5,1,0,0,response1disk,2,13,5.5,1,0,0,rectangle,13,5.5,1,0,0,0,5,"[196,148,267,171,55,213,167,12,286,205,229,274,11,91,182,177,34,319,95,97]",13,5.5,1,0,0,0,174,11,11,129,1,,,,,,,,,,,,,,,,,,,,,
,,,,,,,,,,,,,,,,,,,,,,,,,,,,,,,,,,,,,,,,,,,5b99c0a6a9c8150001d33bbc,5fb5d99cb10d321e67cdf81e,2020-11-18_18h43.25.664,Colour_Similarity_Experiment,2020.1.2,Win32,60,5fb5945709dec70f2d595766,,,,,,,,,,,,,,,,,,,,PF,,,,,,,,6,1.01389,,,,,,,,,,,,,,,,,,,,,,,,,,,,1,65,32.5,1,0,0,response1disk,7,12,-0.5,1,0,0,rectangle,12,-0.5,1,0,0,0,7,"[196,148,267,171,55,213,167,12,286,205,229,274,11,91,182,177,34,319,95,97]",12,-0.5,1,0,0,0,175,12,12,150,1,,,,,,,,,,,,,,,,,,,,,
,,,,,,,,,,,,,,,,,,,,,,,,,,,,,,,,,,,,,,,,,,,5b99c0a6a9c8150001d33bbc,5fb5d99cb10d321e67cdf81e,2020-11-18_18h43.25.664,Colour_Similarity_Experiment,2020.1.2,Win32,60,5fb5945709dec70f2d595766,,,,,,,,,,,,,,,,,,,,PF,,,,,,,,7,1.390245,,,,,,,,,,,,,,,,,,,,,,,,,,,,2,51,68.5,1,0,0,response1disk,7,-4,-3.5,1,0,0,rectangle,-4,-3.5,1,0,0,0,1,"[196,148,267,171,55,213,167,12,286,205,229,274,11,91,182,177,34,319,95,97]",-4,-3.5,1,0,0,0,176,13,13,107,1,,,,,,,,,,,,,,,,,,,,,
,,,,,,,,,,,,,,,,,,,,,,,,,,,,,,,,,,,,,,,,,,,5b99c0a6a9c8150001d33bbc,5fb5d99cb10d321e67cdf81e,2020-11-18_18h43.25.664,Colour_Similarity_Experiment,2020.1.2,Win32,60,5fb5945709dec70f2d595766,,,,,,,,,,,,,,,,,,,,PF,,,,,,,,0,1.61465,,,,,,,,,,,,,,,,,,,,,,,,,,,,7,-22,68.5,1,0,0,response7disk,7,1,9.5,1,0,0,rectangle,-43,103.5,1,0,0,0,0,"[196,148,267,171,55,213,167,12,286,205,229,274,11,91,182,177,34,319,95,97]",13,-2.5,1,0,0,0,177,14,14,51,1,response7disk_3,rectangle,,,,,,,,,,,,,,,,,,,
,,,,,,,,,,,,,,,,,,,,,,,,,,,,,,,,,,,,,,,,,,,5b99c0a6a9c8150001d33bbc,5fb5d99cb10d321e67cdf81e,2020-11-18_18h43.25.664,Colour_Similarity_Experiment,2020.1.2,Win32,60,5fb5945709dec70f2d595766,,,,,,,,,,,,,,,,,,,,FF,,,,,,,,7,1.82181,,,,,,,,,,,,,,,,,,,,,,,,,,,,7,53,70.5,1,0,0,response1disk,2,2,6.5,1,0,0,rectangle,2,6.5,1,0,0,0,0,"[196,148,267,171,55,213,167,12,286,205,229,274,11,91,182,177,34,319,95,97]",2,6.5,1,0,0,0,178,15,15,138,1,,,,,,,,,,,,,,,,,,,,,
,,,,,,,,,,,,,,,,,,,,,,,,,,,,,,,,,,,,,,,,,,,5b99c0a6a9c8150001d33bbc,5fb5d99cb10d321e67cdf81e,2020-11-18_18h43.25.664,Colour_Similarity_Experiment,2020.1.2,Win32,60,5fb5945709dec70f2d595766,,,,,,,,,,,,,,,,,,,,PF,,,,,,,,0,1.174915,,,,,,,,,,,,,,,,,,,,,,,,,,,,3,-45,80.5,1,0,0,response7disk,3,-2,0.5,1,0,0,rectangle,-2,0.5,1,0,0,0,0,"[196,148,267,171,55,213,167,12,286,205,229,274,11,91,182,177,34,319,95,97]",-2,0.5,1,0,0,0,179,16,16,4,1,,,,,,,,,,,,,,,,,,,,,
,,,,,,,,,,,,,,,,,,,,,,,,,,,,,,,,,,,,,,,,,,,5b99c0a6a9c8150001d33bbc,5fb5d99cb10d321e67cdf81e,2020-11-18_18h43.25.664,Colour_Similarity_Experiment,2020.1.2,Win32,60,5fb5945709dec70f2d595766,,,,,,,,,,,,,,,,,,,,PF,,,,,,,,7,1.390885,,,,,,,,,,,,,,,,,,,,,,,,,,,,7,48,72.5,1,0,0,response1disk,1,10,5.5,1,0,0,rectangle,10,5.5,1,0,0,0,1,"[196,148,267,171,55,213,167,12,286,205,229,274,11,91,182,177,34,319,95,97]",10,5.5,1,0,0,0,180,17,17,53,1,,,,,,,,,,,,,,,,,,,,,
,,,,,,,,,,,,,,,,,,,,,,,,,,,,,,,,,,,,,,,,,,,5b99c0a6a9c8150001d33bbc,5fb5d99cb10d321e67cdf81e,2020-11-18_18h43.25.664,Colour_Similarity_Experiment,2020.1.2,Win32,60,5fb5945709dec70f2d595766,,,,,,,,,,,,,,,,,,,,FF,,,,,,,,6,1.49186,,,,,,,,,,,,,,,,,,,,,,,,,,,,9,66,27.5,1,0,0,response1disk,8,28,0.5,1,0,0,rectangle,28,0.5,1,0,0,0,0,"[196,148,267,171,55,213,167,12,286,205,229,274,11,91,182,177,34,319,95,97]",28,0.5,1,0,0,0,181,18,18,6,1,,,,,,,,,,,,,,,,,,,,,
,,,,,,,,,,,,,,,,,,,,,,,,,,,,,,,,,,,,,,,,,,,5b99c0a6a9c8150001d33bbc,5fb5d99cb10d321e67cdf81e,2020-11-18_18h43.25.664,Colour_Similarity_Experiment,2020.1.2,Win32,60,5fb5945709dec70f2d595766,,,,,,,,,,,,,,,,,,,,FF,,,,,,,,3,1.47453,,,,,,,,,,,,,,,,,,,,,,,,,,,,8,-37,-69.5,1,0,0,response5disk,9,1,-1.5,1,0,0,rectangle,-27,79.5,1,0,0,0,0,"[196,148,267,171,55,213,167,12,286,205,229,274,11,91,182,177,34,319,95,97]",8,-5.5,1,0,0,0,182,19,19,105,1,response7disk_3,rectangle,,,,,,,,,,,,,,,,,,,
,,,,,,,,,,,,,,,,,,,,,,,,,,,,,,,,,,,,,,,,,,,5b99c0a6a9c8150001d33bbc,5fb5d99cb10d321e67cdf81e,2020-11-18_18h43.25.664,Colour_Similarity_Experiment,2020.1.2,Win32,60,5fb5945709dec70f2d595766,,,,,,,,,,,,,,,,,,,,PF,,,,,,,,6,1.37107,,,,,,,,,,,,,,,,,,,,,,,,,,,,2,71,38.5,1,0,0,response1disk,8,8,-5.5,1,0,0,rectangle,8,-5.5,1,0,0,0,6,"[196,148,267,171,55,213,167,12,286,205,229,274,11,91,182,177,34,319,95,97]",8,-5.5,1,0,0,0,183,20,20,52,1,,,,,,,,,,,,,,,,,,,,,
,,,,,,,,,,,,,,,,,,,,,,,,,,,,,,,,,,,,,,,,,,,5b99c0a6a9c8150001d33bbc,5fb5d99cb10d321e67cdf81e,2020-11-18_18h43.25.664,Colour_Similarity_Experiment,2020.1.2,Win32,60,5fb5945709dec70f2d595766,,,,,,,,,,,,,,,,,,,,FF,,,,,,,,7,3.923015,,,,,,,,,,,,,,,,,,,,,,,,,,,,1,32,51.5,1,0,0,response1disk,6,-3,2.5,1,0,0,rectangle,-3,2.5,1,0,0,0,3,"[196,148,267,171,55,213,167,12,286,205,229,274,11,91,182,177,34,319,95,97]",-3,2.5,1,0,0,0,184,21,21,58,1,,,,,,,,,,,,,,,,,,,,,
,,,,,,,,,,,,,,,,,,,,,,,,,,,,,,,,,,,,,,,,,,,5b99c0a6a9c8150001d33bbc,5fb5d99cb10d321e67cdf81e,2020-11-18_18h43.25.664,Colour_Similarity_Experiment,2020.1.2,Win32,60,5fb5945709dec70f2d595766,,,,,,,,,,,,,,,,,,,,PF,,,,,,,,6,1.13145,,,,,,,,,,,,,,,,,,,,,,,,,,,,9,60,32.5,1,0,0,response1disk,3,24,-2.5,1,0,0,rectangle,24,-2.5,1,0,0,0,1,"[196,148,267,171,55,213,167,12,286,205,229,274,11,91,182,177,34,319,95,97]",24,-2.5,1,0,0,0,185,22,22,119,1,,,,,,,,,,,,,,,,,,,,,
,,,,,,,,,,,,,,,,,,,,,,,,,,,,,,,,,,,,,,,,,,,5b99c0a6a9c8150001d33bbc,5fb5d99cb10d321e67cdf81e,2020-11-18_18h43.25.664,Colour_Similarity_Experiment,2020.1.2,Win32,60,5fb5945709dec70f2d595766,,,,,,,,,,,,,,,,,,,,FF,,,,,,,,3,1.137925,,,,,,,,,,,,,,,,,,,,,,,,,,,,1,-30,-69.5,1,0,0,response5disk,9,-1,-1.5,1,0,0,rectangle,-1,-1.5,1,0,0,0,5,"[196,148,267,171,55,213,167,12,286,205,229,274,11,91,182,177,34,319,95,97]",-1,-1.5,1,0,0,0,186,23,23,123,1,,,,,,,,,,,,,,,,,,,,,
,,,,,,,,,,,,,,,,,,,,,,,,,,,,,,,,,,,,,,,,,,,5b99c0a6a9c8150001d33bbc,5fb5d99cb10d321e67cdf81e,2020-11-18_18h43.25.664,Colour_Similarity_Experiment,2020.1.2,Win32,60,5fb5945709dec70f2d595766,,,,,,,,,,,,,,,,,,,,PF,,,,,,,,6,2.48032,,,,,,,,,,,,,,,,,,,,,,,,,,,,2,74,39.5,1,0,0,response1disk,3,23,1.5,1,0,0,rectangle,23,1.5,1,0,0,0,1,"[196,148,267,171,55,213,167,12,286,205,229,274,11,91,182,177,34,319,95,97]",23,1.5,1,0,0,0,187,24,24,69,1,,,,,,,,,,,,,,,,,,,,,
,,,,,,,,,,,,,,,,,,,,,,,,,,,,,,,,,,,,,,,,,,,5b99c0a6a9c8150001d33bbc,5fb5d99cb10d321e67cdf81e,2020-11-18_18h43.25.664,Colour_Similarity_Experiment,2020.1.2,Win32,60,5fb5945709dec70f2d595766,,,,,,,,,,,,,,,,,,,,FF,,,,,,,,0,1.12175,,,,,,,,,,,,,,,,,,,,,,,,,,,,3,-25,62.5,1,0,0,response7disk,3,-2,0.5,1,0,0,rectangle,-2,0.5,1,0,0,0,4,"[196,148,267,171,55,213,167,12,286,205,229,274,11,91,182,177,34,319,95,97]",-2,0.5,1,0,0,0,188,25,25,68,1,,,,,,,,,,,,,,,,,,,,,
,,,,,,,,,,,,,,,,,,,,,,,,,,,,,,,,,,,,,,,,,,,5b99c0a6a9c8150001d33bbc,5fb5d99cb10d321e67cdf81e,2020-11-18_18h43.25.664,Colour_Similarity_Experiment,2020.1.2,Win32,60,5fb5945709dec70f2d595766,,,,,,,,,,,,,,,,,,,,PF,,,,,,,,1,1.4075,,,,,,,,,,,,,,,,,,,,,,,,,,,,4,-59,25.5,1,0,0,response7disk,5,-6,2.5,1,0,0,rectangle,-6,2.5,1,0,0,0,0,"[196,148,267,171,55,213,167,12,286,205,229,274,11,91,182,177,34,319,95,97]",-6,2.5,1,0,0,0,189,26,26,49,1,,,,,,,,,,,,,,,,,,,,,
,,,,,,,,,,,,,,,,,,,,,,,,,,,,,,,,,,,,,,,,,,,5b99c0a6a9c8150001d33bbc,5fb5d99cb10d321e67cdf81e,2020-11-18_18h43.25.664,Colour_Similarity_Experiment,2020.1.2,Win32,60,5fb5945709dec70f2d595766,,,,,,,,,,,,,,,,,,,,PF,,,,,,,,4,3.14132,,,,,,,,,,,,,,,,,,,,,,,,,,,,6,23,-59.5,1,0,0,response3disk,3,8,3.5,1,0,0,rectangle,8,3.5,1,0,0,0,5,"[196,148,267,171,55,213,167,12,286,205,229,274,11,91,182,177,34,319,95,97]",8,3.5,1,0,0,0,190,27,27,26,1,,,,,,,,,,,,,,,,,,,,,
,,,,,,,,,,,,,,,,,,,,,,,,,,,,,,,,,,,,,,,,,,,5b99c0a6a9c8150001d33bbc,5fb5d99cb10d321e67cdf81e,2020-11-18_18h43.25.664,Colour_Similarity_Experiment,2020.1.2,Win32,60,5fb5945709dec70f2d595766,,,,,,,,,,,,,,,,,,,,PF,,,,,,,,5,2.21645,,,,,,,,,,,,,,,,,,,,,,,,,,,,4,88,-29.5,1,0,0,response3disk,6,16,3.5,1,0,0,rectangle,16,3.5,1,0,0,0,4,"[196,148,267,171,55,213,167,12,286,205,229,274,11,91,182,177,34,319,95,97]",16,3.5,1,0,0,0,191,28,28,120,1,,,,,,,,,,,,,,,,,,,,,
,,,,,,,,,,,,,,,,,,,,,,,,,,,,,,,,,,,,,,,,,,,5b99c0a6a9c8150001d33bbc,5fb5d99cb10d321e67cdf81e,2020-11-18_18h43.25.664,Colour_Similarity_Experiment,2020.1.2,Win32,60,5fb5945709dec70f2d595766,,,,,,,,,,,,,,,,,,,,PF,,,,,,,,2,2.1954,,,,,,,,,,,,,,,,,,,,,,,,,,,,8,-59,-43.5,1,0,0,response5disk,7,-18,2.5,1,0,0,rectangle,-18,2.5,1,0,0,0,2,"[196,148,267,171,55,213,167,12,286,205,229,274,11,91,182,177,34,319,95,97]",-18,2.5,1,0,0,0,192,29,29,23,1,,,,,,,,,,,,,,,,,,,,,
,,,,,,,,,,,,,,,,,,,,,,,,,,,,,,,,,,,,,,,,,,,5b99c0a6a9c8150001d33bbc,5fb5d99cb10d321e67cdf81e,2020-11-18_18h43.25.664,Colour_Similarity_Experiment,2020.1.2,Win32,60,5fb5945709dec70f2d595766,,,,,,,,,,,,,,,,,,,,PF,,,,,,,,6,1.149985,,,,,,,,,,,,,,,,,,,,,,,,,,,,5,46,21.5,1,0,0,response1disk,8,24,4.5,1,0,0,rectangle,24,4.5,1,0,0,0,5,"[196,148,267,171,55,213,167,12,286,205,229,274,11,91,182,177,34,319,95,97]",24,4.5,1,0,0,0,193,30,30,149,1,,,,,,,,,,,,,,,,,,,,,
,,,,,,,,,,,,,,,,,,,,,,,,,,,,,,,,,,,,,,,,,,,5b99c0a6a9c8150001d33bbc,5fb5d99cb10d321e67cdf81e,2020-11-18_18h43.25.664,Colour_Similarity_Experiment,2020.1.2,Win32,60,5fb5945709dec70f2d595766,,,,,,,,,,,,,,,,,,,,PF,,,,,,,,5,1.999235,,,,,,,,,,,,,,,,,,,,,,,,,,,,1,64,-38.5,1,0,0,response3disk,2,6,-3.5,1,0,0,rectangle,6,-3.5,1,0,0,0,7,"[196,148,267,171,55,213,167,12,286,205,229,274,11,91,182,177,34,319,95,97]",6,-3.5,1,0,0,0,194,31,31,24,1,,,,,,,,,,,,,,,,,,,,,
,,,,,,,,,,,,,,,,,,,,,,,,,,,,,,,,,,,,,,,,,,,5b99c0a6a9c8150001d33bbc,5fb5d99cb10d321e67cdf81e,2020-11-18_18h43.25.664,Colour_Similarity_Experiment,2020.1.2,Win32,60,5fb5945709dec70f2d595766,,,,,,,,,,,,,,,,,,,,PF,,,,,,,,7,3.06384,,,,,,,,,,,,,,,,,,,,,,,,,,,,4,31,56.5,1,0,0,response1disk,9,1,6.5,1,0,0,rectangle,1,6.5,1,0,0,0,5,"[196,148,267,171,55,213,167,12,286,205,229,274,11,91,182,177,34,319,95,97]",1,6.5,1,0,0,0,195,32,32,75,1,,,,,,,,,,,,,,,,,,,,,
,,,,,,,,,,,,,,,,,,,,,,,,,,,,,,,,,,,,,,,,,,,5b99c0a6a9c8150001d33bbc,5fb5d99cb10d321e67cdf81e,2020-11-18_18h43.25.664,Colour_Similarity_Experiment,2020.1.2,Win32,60,5fb5945709dec70f2d595766,,,,,,,,,,,,,,,,,,,,FF,,,,,,,,0,1.32303,,,,,,,,,,,,,,,,,,,,,,,,,,,,2,-44,82.5,1,0,0,response7disk,2,-2,-1.5,1,0,0,rectangle,34,-76.5,1,0,0,4,4,"[196,148,267,171,55,213,167,12,286,205,229,274,11,91,182,177,34,319,95,97]",6,-8.5,1,0,0,0,196,33,33,142,1,response3disk_3,rectangle,,,,,,,,,,,,,,,,,,,
,,,,,,,,,,,,,,,,,,,,,,,,,,,,,,,,,,,,,,,,,,,5b99c0a6a9c8150001d33bbc,5fb5d99cb10d321e67cdf81e,2020-11-18_18h43.25.664,Colour_Similarity_Experiment,2020.1.2,Win32,60,5fb5945709dec70f2d595766,,,,,,,,,,,,,,,,,,,,FF,,,,,,,,4,6.96435,,,,,,,,,,,,,,,,,,,,,,,,,,,,2,39,-62.5,1,0,0,response3disk,1,16,-6.5,1,0,0,rectangle,16,-6.5,1,0,0,4,4,"[196,148,267,171,55,213,167,12,286,205,229,274,11,91,182,177,34,319,95,97]",16,-6.5,1,0,0,0,197,34,34,85,1,,,,,,,,,,,,,,,,,,,,,
,,,,,,,,,,,,,,,,,,,,,,,,,,,,,,,,,,,,,,,,,,,5b99c0a6a9c8150001d33bbc,5fb5d99cb10d321e67cdf81e,2020-11-18_18h43.25.664,Colour_Similarity_Experiment,2020.1.2,Win32,60,5fb5945709dec70f2d595766,,,,,,,,,,,,,,,,,,,,FF,,,,,,,,7,1.36452,,,,,,,,,,,,,,,,,,,,,,,,,,,,4,46,69.5,1,0,0,response1disk,2,21,0.5,1,0,0,rectangle,21,0.5,1,0,0,4,3,"[196,148,267,171,55,213,167,12,286,205,229,274,11,91,182,177,34,319,95,97]",21,0.5,1,0,0,0,198,35,35,13,1,,,,,,,,,,,,,,,,,,,,,
,,,,,,,,,,,,,,,,,,,,,,,,,,,,,,,,,,,,,,,,,,,5b99c0a6a9c8150001d33bbc,5fb5d99cb10d321e67cdf81e,2020-11-18_18h43.25.664,Colour_Similarity_Experiment,2020.1.2,Win32,60,5fb5945709dec70f2d595766,,,,,,,,,,,,,,,,,,,,PF,,,,,,,,5,1.95226,,,,,,,,,,,,,,,,,,,,,,,,,,,,1,61,-28.5,1,0,0,response3disk,8,8,3.5,1,0,0,rectangle,8,3.5,1,0,0,4,2,"[196,148,267,171,55,213,167,12,286,205,229,274,11,91,182,177,34,319,95,97]",8,3.5,1,0,0,0,199,36,36,65,1,,,,,,,,,,,,,,,,,,,,,
,,,,,,,,,,,,,,,,,,,,,,,,,,,,,,,,,,,,,,,,,,,5b99c0a6a9c8150001d33bbc,5fb5d99cb10d321e67cdf81e,2020-11-18_18h43.25.664,Colour_Similarity_Experiment,2020.1.2,Win32,60,5fb5945709dec70f2d595766,,,,,,,,,,,,,,,,,,,,PF,,,,,,,,7,1.13914,,,,,,,,,,,,,,,,,,,,,,,,,,,,4,54,79.5,1,0,0,response1disk,1,22,-0.5,1,0,0,rectangle,22,-0.5,1,0,0,4,1,"[196,148,267,171,55,213,167,12,286,205,229,274,11,91,182,177,34,319,95,97]",22,-0.5,1,0,0,0,200,37,37,115,1,,,,,,,,,,,,,,,,,,,,,
,,,,,,,,,,,,,,,,,,,,,,,,,,,,,,,,,,,,,,,,,,,5b99c0a6a9c8150001d33bbc,5fb5d99cb10d321e67cdf81e,2020-11-18_18h43.25.664,Colour_Similarity_Experiment,2020.1.2,Win32,60,5fb5945709dec70f2d595766,,,,,,,,,,,,,,,,,,,,PF,,,,,,,,0,1.395885,,,,,,,,,,,,,,,,,,,,,,,,,,,,2,-36,54.5,1,0,0,response7disk,2,-20,12.5,1,0,0,rectangle,-20,12.5,1,0,0,4,0,"[196,148,267,171,55,213,167,12,286,205,229,274,11,91,182,177,34,319,95,97]",-20,12.5,1,0,0,0,201,38,38,14,1,,,,,,,,,,,,,,,,,,,,,
