key_resp.keys,key_resp.rt,key_resp_16.keys,key_resp_16.rt,key_resp_2.keys,key_resp_2.rt,X Scale,ratio_pxpermm,screen_size_x,screen_size_y,testsize,key_resp_3.keys,key_resp_3.rt,key_resp_4.keys,key_resp_4.rt,line_size,key_resp_5.keys,key_resp_5.rt,key_resp_6.keys,key_resp_6.rt,key_resp_8.keys,key_resp_8.rt,key_resp_7.keys,key_resp_7.rt,key_resp_12.keys,key_resp_12.rt,key_resp_11.keys,key_resp_11.rt,key_resp_18.keys,key_resp_18.rt,key_resp_21.keys,key_resp_21.rt,key_resp_13.keys,key_resp_13.rt,key_resp_19.keys,key_resp_19.rt,ballposx,viewer_distance,trials.thisRepN,trials.thisTrialN,trials.thisN,trials.thisIndex,trials.ran,participant,session,date,expName,psychopyVersion,OS,frameRate,study_id,viewerdistancecm,DVA_to_distance,radius_F,radius_P,r_F,R_P,key_resp_20.keys,key_resp_20.rt,key_resp_14.keys,key_resp_14.rt,key_resp_15.keys,key_resp_15.rt,key_resp_17.keys,key_resp_17.rt,key_resp_9.keys,key_resp_9.rt,key_resp_10.keys,key_resp_10.rt,Colour_1,Ecc,mouse_5.x,mouse_5.y,mouse_5.leftButton,mouse_5.midButton,mouse_5.rightButton,mouse_5.clicked_name,Colour_2,similarity,response_time,mouse_10.x,mouse_10.y,mouse_10.leftButton,mouse_10.midButton,mouse_10.rightButton,mouse_10.clicked_name,mouse_7.x,mouse_7.y,mouse_7.leftButton,mouse_7.midButton,mouse_7.rightButton,catchnumberprac,mouse_6.x,mouse_6.y,mouse_6.leftButton,mouse_6.midButton,mouse_6.rightButton,duringprac.thisRepN,duringprac.thisTrialN,duringprac.thisN,duringprac.thisIndex,duringprac.ran,mouse_7.clicked_name,catchprac,mouse_6.clicked_name,key_resp_22.keys,key_resp_22.rt,Colour1,mouse.x,mouse.y,mouse.leftButton,mouse.midButton,mouse.rightButton,mouse.clicked_name,Colour2,mouse_2.x,mouse_2.y,mouse_2.leftButton,mouse_2.midButton,mouse_2.rightButton,mouse_2.clicked_name,mouse_3.x,mouse_3.y,mouse_3.leftButton,mouse_3.midButton,mouse_3.rightButton,catchresponse,catchnumber,catchtrialorder,mouse_11.x,mouse_11.y,mouse_11.leftButton,mouse_11.midButton,mouse_11.rightButton,trials_2.thisRepN,trialnumber,trials_2.thisTrialN,trials_2.thisN,trials_2.thisIndex,trials_2.ran,mouse_3.clicked_name,mouse_11.clicked_name,trials_3.thisRepN,trials_3.thisTrialN,trials_3.thisN,trials_3.thisIndex,trials_3.ran,answer1,rt1,answer2,rt2,answer3,rt3,answer4,rt4,answer5,rt5,answer6,rt6,answer7,rt7
space,9.455905,space,9.031015,space,5.745085,37.4,3.74,513.368984,288.7700535,1920,space,38.032705,space,12.06709,74.8,space,13.794595,space,3.759765,space,1.902755,space,7.02602,space,9.794385,space,16.183685,space,9.395595,space,10.47,space,10.805685,return,2.554265,164.16,672.5068307,0,0,0,0,1,5cf80c2ccbe8f10016dba137,5fb5d95ea1b9851d799bf75a,2020-11-18_20h34.49.712,Colour_Similarity_Experiment,2020.1.2,Linux x86_64,60,5fb5945709dec70f2d595766,,,,,,,,,,,,,,,,,,,,,,,,,,,,,,,,,,,,,,,,,,,,,,,,,,,,,,,,,,,,,,,,,,,,,,,,,,,,,,,,,,,,,,,,,,,,,,,,,,,,,,,,,,,,,,
,,,,,,,,,,,,,,,,,,,,,,,,,,,,,,,,,,return,2.540615,169.92,666.0918211,1,0,1,0,1,5cf80c2ccbe8f10016dba137,5fb5d95ea1b9851d799bf75a,2020-11-18_20h34.49.712,Colour_Similarity_Experiment,2020.1.2,Linux x86_64,60,5fb5945709dec70f2d595766,,,,,,,,,,,,,,,,,,,,,,,,,,,,,,,,,,,,,,,,,,,,,,,,,,,,,,,,,,,,,,,,,,,,,,,,,,,,,,,,,,,,,,,,,,,,,,,,,,,,,,,,,,,,,,
,,,,,,,,,,,,,,,,,,,,,,,,,,,,,,,,,,return,2.360525,207.36,624.3942593,2,0,2,0,1,5cf80c2ccbe8f10016dba137,5fb5d95ea1b9851d799bf75a,2020-11-18_20h34.49.712,Colour_Similarity_Experiment,2020.1.2,Linux x86_64,60,5fb5945709dec70f2d595766,,,,,,,,,,,,,,,,,,,,,,,,,,,,,,,,,,,,,,,,,,,,,,,,,,,,,,,,,,,,,,,,,,,,,,,,,,,,,,,,,,,,,,,,,,,,,,,,,,,,,,,,,,,,,,
,,,,,,,,,,,,,,,,,,,,,,,,,,,,,,,,,,return,2.507455,175.68,659.6768116,3,0,3,0,1,5cf80c2ccbe8f10016dba137,5fb5d95ea1b9851d799bf75a,2020-11-18_20h34.49.712,Colour_Similarity_Experiment,2020.1.2,Linux x86_64,60,5fb5945709dec70f2d595766,,,,,,,,,,,,,,,,,,,,,,,,,,,,,,,,,,,,,,,,,,,,,,,,,,,,,,,,,,,,,,,,,,,,,,,,,,,,,,,,,,,,,,,,,,,,,,,,,,,,,,,,,,,,,,
,,,,,,,,,,,,,,,,,,,,,,,,,,,,,,,,,,return,2.466585,184.32,650.0542974,4,0,4,0,1,5cf80c2ccbe8f10016dba137,5fb5d95ea1b9851d799bf75a,2020-11-18_20h34.49.712,Colour_Similarity_Experiment,2020.1.2,Linux x86_64,60,5fb5945709dec70f2d595766,,,,,,,,,,,,,,,,,,,,,,,,,,,,,,,,,,,,,,,,,,,,,,,,,,,,,,,,,,,,,,,,,,,,,,,,,,,,,,,,,,,,,,,,,,,,,,,,,,,,,,,,,,,,,,
,,,,,,,,,,,,,,,,,,,,,,,,,,,,,,,,,,,,,,,,,,,5cf80c2ccbe8f10016dba137,5fb5d95ea1b9851d799bf75a,2020-11-18_20h34.49.712,Colour_Similarity_Experiment,2020.1.2,Linux x86_64,60,5fb5945709dec70f2d595766,65,11.34578815,63.6498715,424.3324766,42.43324766,190.9496145,space,3.51762,space,21.033575,space,35.03532,space,3.39832,space,8.72522,space,6.212635,5,FF,84,115,1,0,0,response1disk_5,6,7,18.884825,-14,-4,1,0,0,rectangle_8,-14,-4,1,0,0,4,-14,-4,1,0,0,0,0,0,3,1,,,,,,,,,,,,,,,,,,,,,,,,,,,,,,,,,,,,,,,,,,,,,,,,,,,,,,,,,,,
,,,,,,,,,,,,,,,,,,,,,,,,,,,,,,,,,,,,,,,,,,,5cf80c2ccbe8f10016dba137,5fb5d95ea1b9851d799bf75a,2020-11-18_20h34.49.712,Colour_Similarity_Experiment,2020.1.2,Linux x86_64,60,5fb5945709dec70f2d595766,,,,,,,,,,,,,,,,,,,6,FF,114,59,1,0,0,response1disk_5,9,6,5.58915,17,14,1,0,0,rectangle_8,17,14,1,0,0,4,17,14,1,0,0,0,1,1,5,1,,,,,,,,,,,,,,,,,,,,,,,,,,,,,,,,,,,,,,,,,,,,,,,,,,,,,,,,,,,
,,,,,,,,,,,,,,,,,,,,,,,,,,,,,,,,,,,,,,,,,,,5cf80c2ccbe8f10016dba137,5fb5d95ea1b9851d799bf75a,2020-11-18_20h34.49.712,Colour_Similarity_Experiment,2020.1.2,Linux x86_64,60,5fb5945709dec70f2d595766,,,,,,,,,,,,,,,,,,,1,PF,-42,112,1,0,0,response7disk_5,1,0,7.672365,-8,1,1,0,0,rectangle_8,66,-137,1,0,0,4,5,-5,1,0,0,0,2,2,4,1,response3disk_7,4,rectangle_4,,,,,,,,,,,,,,,,,,,,,,,,,,,,,,,,,,,,,,,,,,,,,,,,,,,,,,,,
,,,,,,,,,,,,,,,,,,,,,,,,,,,,,,,,,,,,,,,,,,,5cf80c2ccbe8f10016dba137,5fb5d95ea1b9851d799bf75a,2020-11-18_20h34.49.712,Colour_Similarity_Experiment,2020.1.2,Linux x86_64,60,5fb5945709dec70f2d595766,,,,,,,,,,,,,,,,,,,7,PF,54,136,1,0,0,response1disk_5,4,7,5.82277,25,-1,1,0,0,rectangle_8,25,-1,1,0,0,4,25,-1,1,0,0,0,3,3,6,1,,,,,,,,,,,,,,,,,,,,,,,,,,,,,,,,,,,,,,,,,,,,,,,,,,,,,,,,,,,
,,,,,,,,,,,,,,,,,,,,,,,,,,,,,,,,,,,,,,,,,,,5cf80c2ccbe8f10016dba137,5fb5d95ea1b9851d799bf75a,2020-11-18_20h34.49.712,Colour_Similarity_Experiment,2020.1.2,Linux x86_64,60,5fb5945709dec70f2d595766,,,,,,,,,,,,,,,,,,,4,FF,-27,127,1,0,0,response7disk_5,4,0,4.37956,8,-16,1,0,0,rectangle_8,8,-16,1,0,0,4,8,-16,1,0,0,0,4,4,0,1,,,,,,,,,,,,,,,,,,,,,,,,,,,,,,,,,,,,,,,,,,,,,,,,,,,,,,,,,,,
,,,,,,,,,,,,,,,,,,,,,,,,,,,,,,,,,,,,,,,,,,,5cf80c2ccbe8f10016dba137,5fb5d95ea1b9851d799bf75a,2020-11-18_20h34.49.712,Colour_Similarity_Experiment,2020.1.2,Linux x86_64,60,5fb5945709dec70f2d595766,,,,,,,,,,,,,,,,,,,6,PF,122,-63,1,0,0,response3disk_5,7,5,6.97771,10,7,1,0,0,rectangle_8,53,-133,1,0,0,4,12,-11,1,0,0,0,5,5,1,1,response3disk_7,4,rectangle_4,,,,,,,,,,,,,,,,,,,,,,,,,,,,,,,,,,,,,,,,,,,,,,,,,,,,,,,,
,,,,,,,,,,,,,,,,,,,,,,,,,,,,,,,,,,,,,,,,,,,5cf80c2ccbe8f10016dba137,5fb5d95ea1b9851d799bf75a,2020-11-18_20h34.49.712,Colour_Similarity_Experiment,2020.1.2,Linux x86_64,60,5fb5945709dec70f2d595766,,,,,,,,,,,,,,,,,,,9,PF,66,101,1,0,0,response1disk_5,7,7,2.84228,14,-1,1,0,0,rectangle_8,14,-1,1,0,0,4,14,-1,1,0,0,0,6,6,2,1,,,,,,,,,,,,,,,,,,,,,,,,,,,,,,,,,,,,,,,,,,,,,,,,,,,,,,,,,,,
,,,,,,,,,,,,,,,,,,,,,,,,,,,,,,,,,,,,,,,,,,,5cf80c2ccbe8f10016dba137,5fb5d95ea1b9851d799bf75a,2020-11-18_20h34.49.712,Colour_Similarity_Experiment,2020.1.2,Linux x86_64,60,5fb5945709dec70f2d595766,,,,,,,,,,,,,,,,,,,,FF,,,,,,,,7,5.657115,,,,,,,,,,,,,,,,,,,,,,,,,,space,5.772495,9,57,117,1,0,0,response1disk,7,-13,-6,1,0,0,rectangle,-13,-6,1,0,0,,0,"[103,96,157,179,288,77,221,50,43,184,302,57,134,263,228,146,182,12,2,274]",-13,-6,1,0,0,0,1,0,0,100,1,,,,,,,,,,,,,,,,,,,,,
,,,,,,,,,,,,,,,,,,,,,,,,,,,,,,,,,,,,,,,,,,,5cf80c2ccbe8f10016dba137,5fb5d95ea1b9851d799bf75a,2020-11-18_20h34.49.712,Colour_Similarity_Experiment,2020.1.2,Linux x86_64,60,5fb5945709dec70f2d595766,,,,,,,,,,,,,,,,,,,,FF,,,,,,,,0,5.44086,,,,,,,,,,,,,,,,,,,,,,,,,,,,7,-49,137,1,0,0,response7disk,7,9,-2,1,0,0,rectangle,132,82,1,0,0,6,6,"[103,96,157,179,288,77,221,50,43,184,302,57,134,263,228,146,182,12,2,274]",17,-2,1,0,0,0,2,1,1,34,1,response1disk_3,rectangle,,,,,,,,,,,,,,,,,,,
,,,,,,,,,,,,,,,,,,,,,,,,,,,,,,,,,,,,,,,,,,,5cf80c2ccbe8f10016dba137,5fb5d95ea1b9851d799bf75a,2020-11-18_20h34.49.712,Colour_Similarity_Experiment,2020.1.2,Linux x86_64,60,5fb5945709dec70f2d595766,,,,,,,,,,,,,,,,,,,,FF,,,,,,,,7,2.86849,,,,,,,,,,,,,,,,,,,,,,,,,,,,2,58,120,1,0,0,response1disk,6,-13,0,1,0,0,rectangle,-13,0,1,0,0,6,4,"[103,96,157,179,288,77,221,50,43,184,302,57,134,263,228,146,182,12,2,274]",-13,0,1,0,0,0,3,2,2,40,1,,,,,,,,,,,,,,,,,,,,,
,,,,,,,,,,,,,,,,,,,,,,,,,,,,,,,,,,,,,,,,,,,5cf80c2ccbe8f10016dba137,5fb5d95ea1b9851d799bf75a,2020-11-18_20h34.49.712,Colour_Similarity_Experiment,2020.1.2,Linux x86_64,60,5fb5945709dec70f2d595766,,,,,,,,,,,,,,,,,,,,PF,,,,,,,,4,4.69712,,,,,,,,,,,,,,,,,,,,,,,,,,,,1,47,-126,1,0,0,response3disk,2,13,8,1,0,0,rectangle,13,8,1,0,0,6,5,"[103,96,157,179,288,77,221,50,43,184,302,57,134,263,228,146,182,12,2,274]",13,8,1,0,0,0,4,3,3,24,1,,,,,,,,,,,,,,,,,,,,,
,,,,,,,,,,,,,,,,,,,,,,,,,,,,,,,,,,,,,,,,,,,5cf80c2ccbe8f10016dba137,5fb5d95ea1b9851d799bf75a,2020-11-18_20h34.49.712,Colour_Similarity_Experiment,2020.1.2,Linux x86_64,60,5fb5945709dec70f2d595766,,,,,,,,,,,,,,,,,,,,FF,,,,,,,,7,2.024445,,,,,,,,,,,,,,,,,,,,,,,,,,,,8,67,127,1,0,0,response1disk,5,4,-4,1,0,0,rectangle,4,-4,1,0,0,6,1,"[103,96,157,179,288,77,221,50,43,184,302,57,134,263,228,146,182,12,2,274]",4,-4,1,0,0,0,5,4,4,152,1,,,,,,,,,,,,,,,,,,,,,
,,,,,,,,,,,,,,,,,,,,,,,,,,,,,,,,,,,,,,,,,,,5cf80c2ccbe8f10016dba137,5fb5d95ea1b9851d799bf75a,2020-11-18_20h34.49.712,Colour_Similarity_Experiment,2020.1.2,Linux x86_64,60,5fb5945709dec70f2d595766,,,,,,,,,,,,,,,,,,,,FF,,,,,,,,7,1.98106,,,,,,,,,,,,,,,,,,,,,,,,,,,,4,54,116,1,0,0,response1disk,6,-3,6,1,0,0,rectangle,-3,6,1,0,0,6,7,"[103,96,157,179,288,77,221,50,43,184,302,57,134,263,228,146,182,12,2,274]",-3,6,1,0,0,0,6,5,5,122,1,,,,,,,,,,,,,,,,,,,,,
,,,,,,,,,,,,,,,,,,,,,,,,,,,,,,,,,,,,,,,,,,,5cf80c2ccbe8f10016dba137,5fb5d95ea1b9851d799bf75a,2020-11-18_20h34.49.712,Colour_Similarity_Experiment,2020.1.2,Linux x86_64,60,5fb5945709dec70f2d595766,,,,,,,,,,,,,,,,,,,,PF,,,,,,,,7,3.895325,,,,,,,,,,,,,,,,,,,,,,,,,,,,9,54,101,1,0,0,response1disk,5,10,8,1,0,0,rectangle,10,8,1,0,0,6,2,"[103,96,157,179,288,77,221,50,43,184,302,57,134,263,228,146,182,12,2,274]",10,8,1,0,0,0,7,6,6,134,1,,,,,,,,,,,,,,,,,,,,,
,,,,,,,,,,,,,,,,,,,,,,,,,,,,,,,,,,,,,,,,,,,5cf80c2ccbe8f10016dba137,5fb5d95ea1b9851d799bf75a,2020-11-18_20h34.49.712,Colour_Similarity_Experiment,2020.1.2,Linux x86_64,60,5fb5945709dec70f2d595766,,,,,,,,,,,,,,,,,,,,PF,,,,,,,,5,4.028685,,,,,,,,,,,,,,,,,,,,,,,,,,,,8,128,-37,1,0,0,response3disk,6,-39,-3,1,0,0,rectangle,-39,-3,1,0,0,6,2,"[103,96,157,179,288,77,221,50,43,184,302,57,134,263,228,146,182,12,2,274]",-39,-3,1,0,0,0,8,7,7,161,1,,,,,,,,,,,,,,,,,,,,,
,,,,,,,,,,,,,,,,,,,,,,,,,,,,,,,,,,,,,,,,,,,5cf80c2ccbe8f10016dba137,5fb5d95ea1b9851d799bf75a,2020-11-18_20h34.49.712,Colour_Similarity_Experiment,2020.1.2,Linux x86_64,60,5fb5945709dec70f2d595766,,,,,,,,,,,,,,,,,,,,PF,,,,,,,,7,1.66324,,,,,,,,,,,,,,,,,,,,,,,,,,,,6,75,88,1,0,0,response1disk,3,34,-5,1,0,0,rectangle,34,-5,1,0,0,6,2,"[103,96,157,179,288,77,221,50,43,184,302,57,134,263,228,146,182,12,2,274]",34,-5,1,0,0,0,9,8,8,26,1,,,,,,,,,,,,,,,,,,,,,
,,,,,,,,,,,,,,,,,,,,,,,,,,,,,,,,,,,,,,,,,,,5cf80c2ccbe8f10016dba137,5fb5d95ea1b9851d799bf75a,2020-11-18_20h34.49.712,Colour_Similarity_Experiment,2020.1.2,Linux x86_64,60,5fb5945709dec70f2d595766,,,,,,,,,,,,,,,,,,,,FF,,,,,,,,7,3.430885,,,,,,,,,,,,,,,,,,,,,,,,,,,,3,48,98,1,0,0,response1disk,6,9,-9,1,0,0,rectangle,9,-9,1,0,0,6,0,"[103,96,157,179,288,77,221,50,43,184,302,57,134,263,228,146,182,12,2,274]",9,-9,1,0,0,0,10,9,9,95,1,,,,,,,,,,,,,,,,,,,,,
,,,,,,,,,,,,,,,,,,,,,,,,,,,,,,,,,,,,,,,,,,,5cf80c2ccbe8f10016dba137,5fb5d95ea1b9851d799bf75a,2020-11-18_20h34.49.712,Colour_Similarity_Experiment,2020.1.2,Linux x86_64,60,5fb5945709dec70f2d595766,,,,,,,,,,,,,,,,,,,,FF,,,,,,,,4,3.89524,,,,,,,,,,,,,,,,,,,,,,,,,,,,1,71,-109,1,0,0,response3disk,2,1,17,1,0,0,rectangle,1,17,1,0,0,6,4,"[103,96,157,179,288,77,221,50,43,184,302,57,134,263,228,146,182,12,2,274]",1,17,1,0,0,0,11,10,10,2,1,,,,,,,,,,,,,,,,,,,,,
,,,,,,,,,,,,,,,,,,,,,,,,,,,,,,,,,,,,,,,,,,,5cf80c2ccbe8f10016dba137,5fb5d95ea1b9851d799bf75a,2020-11-18_20h34.49.712,Colour_Similarity_Experiment,2020.1.2,Linux x86_64,60,5fb5945709dec70f2d595766,,,,,,,,,,,,,,,,,,,,FF,,,,,,,,7,2.367615,,,,,,,,,,,,,,,,,,,,,,,,,,,,4,59,84,1,0,0,response1disk,2,46,14,1,0,0,rectangle,131,71,1,0,0,6,6,"[103,96,157,179,288,77,221,50,43,184,302,57,134,263,228,146,182,12,2,274]",38,-1,1,0,0,0,12,11,11,13,1,response1disk_3,rectangle,,,,,,,,,,,,,,,,,,,
,,,,,,,,,,,,,,,,,,,,,,,,,,,,,,,,,,,,,,,,,,,5cf80c2ccbe8f10016dba137,5fb5d95ea1b9851d799bf75a,2020-11-18_20h34.49.712,Colour_Similarity_Experiment,2020.1.2,Linux x86_64,60,5fb5945709dec70f2d595766,,,,,,,,,,,,,,,,,,,,FF,,,,,,,,3,2.197705,,,,,,,,,,,,,,,,,,,,,,,,,,,,3,-43,-130,1,0,0,response5disk,5,15,-18,1,0,0,rectangle,15,-18,1,0,0,6,0,"[103,96,157,179,288,77,221,50,43,184,302,57,134,263,228,146,182,12,2,274]",15,-18,1,0,0,0,13,12,12,101,1,,,,,,,,,,,,,,,,,,,,,
,,,,,,,,,,,,,,,,,,,,,,,,,,,,,,,,,,,,,,,,,,,5cf80c2ccbe8f10016dba137,5fb5d95ea1b9851d799bf75a,2020-11-18_20h34.49.712,Colour_Similarity_Experiment,2020.1.2,Linux x86_64,60,5fb5945709dec70f2d595766,,,,,,,,,,,,,,,,,,,,FF,,,,,,,,6,2.034595,,,,,,,,,,,,,,,,,,,,,,,,,,,,2,111,50,1,0,0,response1disk,9,24,-17,1,0,0,rectangle,24,-17,1,0,0,6,2,"[103,96,157,179,288,77,221,50,43,184,302,57,134,263,228,146,182,12,2,274]",24,-17,1,0,0,0,14,13,13,72,1,,,,,,,,,,,,,,,,,,,,,
,,,,,,,,,,,,,,,,,,,,,,,,,,,,,,,,,,,,,,,,,,,5cf80c2ccbe8f10016dba137,5fb5d95ea1b9851d799bf75a,2020-11-18_20h34.49.712,Colour_Similarity_Experiment,2020.1.2,Linux x86_64,60,5fb5945709dec70f2d595766,,,,,,,,,,,,,,,,,,,,PF,,,,,,,,5,2.38368,,,,,,,,,,,,,,,,,,,,,,,,,,,,8,96,-63,1,0,0,response3disk,7,27,-13,1,0,0,rectangle,27,-13,1,0,0,6,4,"[103,96,157,179,288,77,221,50,43,184,302,57,134,263,228,146,182,12,2,274]",27,-13,1,0,0,0,15,14,14,23,1,,,,,,,,,,,,,,,,,,,,,
,,,,,,,,,,,,,,,,,,,,,,,,,,,,,,,,,,,,,,,,,,,5cf80c2ccbe8f10016dba137,5fb5d95ea1b9851d799bf75a,2020-11-18_20h34.49.712,Colour_Similarity_Experiment,2020.1.2,Linux x86_64,60,5fb5945709dec70f2d595766,,,,,,,,,,,,,,,,,,,,FF,,,,,,,,7,1.62703,,,,,,,,,,,,,,,,,,,,,,,,,,,,4,74,106,1,0,0,response1disk,9,15,5,1,0,0,rectangle,15,5,1,0,0,6,4,"[103,96,157,179,288,77,221,50,43,184,302,57,134,263,228,146,182,12,2,274]",15,5,1,0,0,0,16,15,15,90,1,,,,,,,,,,,,,,,,,,,,,
,,,,,,,,,,,,,,,,,,,,,,,,,,,,,,,,,,,,,,,,,,,5cf80c2ccbe8f10016dba137,5fb5d95ea1b9851d799bf75a,2020-11-18_20h34.49.712,Colour_Similarity_Experiment,2020.1.2,Linux x86_64,60,5fb5945709dec70f2d595766,,,,,,,,,,,,,,,,,,,,FF,,,,,,,,7,1.16777,,,,,,,,,,,,,,,,,,,,,,,,,,,,1,79,97,1,0,0,response1disk,6,16,4,1,0,0,rectangle,16,4,1,0,0,6,6,"[103,96,157,179,288,77,221,50,43,184,302,57,134,263,228,146,182,12,2,274]",16,4,1,0,0,0,17,16,16,58,1,,,,,,,,,,,,,,,,,,,,,
,,,,,,,,,,,,,,,,,,,,,,,,,,,,,,,,,,,,,,,,,,,5cf80c2ccbe8f10016dba137,5fb5d95ea1b9851d799bf75a,2020-11-18_20h34.49.712,Colour_Similarity_Experiment,2020.1.2,Linux x86_64,60,5fb5945709dec70f2d595766,,,,,,,,,,,,,,,,,,,,FF,,,,,,,,7,3.14536,,,,,,,,,,,,,,,,,,,,,,,,,,,,5,47,109,1,0,0,response1disk,2,11,21,1,0,0,rectangle,11,21,1,0,0,6,7,"[103,96,157,179,288,77,221,50,43,184,302,57,134,263,228,146,182,12,2,274]",11,21,1,0,0,0,18,17,17,55,1,,,,,,,,,,,,,,,,,,,,,
,,,,,,,,,,,,,,,,,,,,,,,,,,,,,,,,,,,,,,,,,,,5cf80c2ccbe8f10016dba137,5fb5d95ea1b9851d799bf75a,2020-11-18_20h34.49.712,Colour_Similarity_Experiment,2020.1.2,Linux x86_64,60,5fb5945709dec70f2d595766,,,,,,,,,,,,,,,,,,,,PF,,,,,,,,7,1.15673,,,,,,,,,,,,,,,,,,,,,,,,,,,,5,51,97,1,0,0,response1disk,2,18,9,1,0,0,rectangle,18,9,1,0,0,6,7,"[103,96,157,179,288,77,221,50,43,184,302,57,134,263,228,146,182,12,2,274]",18,9,1,0,0,0,19,18,18,129,1,,,,,,,,,,,,,,,,,,,,,
,,,,,,,,,,,,,,,,,,,,,,,,,,,,,,,,,,,,,,,,,,,5cf80c2ccbe8f10016dba137,5fb5d95ea1b9851d799bf75a,2020-11-18_20h34.49.712,Colour_Similarity_Experiment,2020.1.2,Linux x86_64,60,5fb5945709dec70f2d595766,,,,,,,,,,,,,,,,,,,,FF,,,,,,,,5,1.779135,,,,,,,,,,,,,,,,,,,,,,,,,,,,7,95,-45,1,0,0,response3disk,8,22,9,1,0,0,rectangle,22,9,1,0,0,6,0,"[103,96,157,179,288,77,221,50,43,184,302,57,134,263,228,146,182,12,2,274]",22,9,1,0,0,0,20,19,19,97,1,,,,,,,,,,,,,,,,,,,,,
,,,,,,,,,,,,,,,,,,,,,,,,,,,,,,,,,,,,,,,,,,,5cf80c2ccbe8f10016dba137,5fb5d95ea1b9851d799bf75a,2020-11-18_20h34.49.712,Colour_Similarity_Experiment,2020.1.2,Linux x86_64,60,5fb5945709dec70f2d595766,,,,,,,,,,,,,,,,,,,,PF,,,,,,,,7,1.1396,,,,,,,,,,,,,,,,,,,,,,,,,,,,6,52,101,1,0,0,response1disk,4,13,6,1,0,0,rectangle,13,6,1,0,0,6,6,"[103,96,157,179,288,77,221,50,43,184,302,57,134,263,228,146,182,12,2,274]",13,6,1,0,0,0,21,20,20,33,1,,,,,,,,,,,,,,,,,,,,,
,,,,,,,,,,,,,,,,,,,,,,,,,,,,,,,,,,,,,,,,,,,5cf80c2ccbe8f10016dba137,5fb5d95ea1b9851d799bf75a,2020-11-18_20h34.49.712,Colour_Similarity_Experiment,2020.1.2,Linux x86_64,60,5fb5945709dec70f2d595766,,,,,,,,,,,,,,,,,,,,FF,,,,,,,,6,2.06903,,,,,,,,,,,,,,,,,,,,,,,,,,,,7,86,52,1,0,0,response1disk,5,14,1,1,0,0,rectangle,14,1,1,0,0,6,0,"[103,96,157,179,288,77,221,50,43,184,302,57,134,263,228,146,182,12,2,274]",14,1,1,0,0,0,22,21,21,156,1,,,,,,,,,,,,,,,,,,,,,
,,,,,,,,,,,,,,,,,,,,,,,,,,,,,,,,,,,,,,,,,,,5cf80c2ccbe8f10016dba137,5fb5d95ea1b9851d799bf75a,2020-11-18_20h34.49.712,Colour_Similarity_Experiment,2020.1.2,Linux x86_64,60,5fb5945709dec70f2d595766,,,,,,,,,,,,,,,,,,,,FF,,,,,,,,7,1.42128,,,,,,,,,,,,,,,,,,,,,,,,,,,,4,56,122,1,0,0,response1disk,1,21,12,1,0,0,rectangle,21,12,1,0,0,6,5,"[103,96,157,179,288,77,221,50,43,184,302,57,134,263,228,146,182,12,2,274]",21,12,1,0,0,0,23,22,22,102,1,,,,,,,,,,,,,,,,,,,,,
,,,,,,,,,,,,,,,,,,,,,,,,,,,,,,,,,,,,,,,,,,,5cf80c2ccbe8f10016dba137,5fb5d95ea1b9851d799bf75a,2020-11-18_20h34.49.712,Colour_Similarity_Experiment,2020.1.2,Linux x86_64,60,5fb5945709dec70f2d595766,,,,,,,,,,,,,,,,,,,,PF,,,,,,,,7,1.15705,,,,,,,,,,,,,,,,,,,,,,,,,,,,2,54,106,1,0,0,response1disk,5,4,20,1,0,0,rectangle,4,20,1,0,0,6,6,"[103,96,157,179,288,77,221,50,43,184,302,57,134,263,228,146,182,12,2,274]",4,20,1,0,0,0,24,23,23,147,1,,,,,,,,,,,,,,,,,,,,,
,,,,,,,,,,,,,,,,,,,,,,,,,,,,,,,,,,,,,,,,,,,5cf80c2ccbe8f10016dba137,5fb5d95ea1b9851d799bf75a,2020-11-18_20h34.49.712,Colour_Similarity_Experiment,2020.1.2,Linux x86_64,60,5fb5945709dec70f2d595766,,,,,,,,,,,,,,,,,,,,PF,,,,,,,,7,1.309305,,,,,,,,,,,,,,,,,,,,,,,,,,,,7,64,105,1,0,0,response1disk,2,17,-4,1,0,0,rectangle,17,-4,1,0,0,6,6,"[103,96,157,179,288,77,221,50,43,184,302,57,134,263,228,146,182,12,2,274]",17,-4,1,0,0,0,25,24,24,32,1,,,,,,,,,,,,,,,,,,,,,
,,,,,,,,,,,,,,,,,,,,,,,,,,,,,,,,,,,,,,,,,,,5cf80c2ccbe8f10016dba137,5fb5d95ea1b9851d799bf75a,2020-11-18_20h34.49.712,Colour_Similarity_Experiment,2020.1.2,Linux x86_64,60,5fb5945709dec70f2d595766,,,,,,,,,,,,,,,,,,,,PF,,,,,,,,4,3.039845,,,,,,,,,,,,,,,,,,,,,,,,,,,,8,49,-139,1,0,0,response3disk,9,30,-8,1,0,0,rectangle,30,-8,1,0,0,6,2,"[103,96,157,179,288,77,221,50,43,184,302,57,134,263,228,146,182,12,2,274]",30,-8,1,0,0,0,26,25,25,42,1,,,,,,,,,,,,,,,,,,,,,
,,,,,,,,,,,,,,,,,,,,,,,,,,,,,,,,,,,,,,,,,,,5cf80c2ccbe8f10016dba137,5fb5d95ea1b9851d799bf75a,2020-11-18_20h34.49.712,Colour_Similarity_Experiment,2020.1.2,Linux x86_64,60,5fb5945709dec70f2d595766,,,,,,,,,,,,,,,,,,,,PF,,,,,,,,6,4.45482,,,,,,,,,,,,,,,,,,,,,,,,,,,,9,123,52,1,0,0,response1disk,2,39,-16,1,0,0,rectangle,39,-16,1,0,0,6,4,"[103,96,157,179,288,77,221,50,43,184,302,57,134,263,228,146,182,12,2,274]",39,-16,1,0,0,0,27,26,26,157,1,,,,,,,,,,,,,,,,,,,,,
,,,,,,,,,,,,,,,,,,,,,,,,,,,,,,,,,,,,,,,,,,,5cf80c2ccbe8f10016dba137,5fb5d95ea1b9851d799bf75a,2020-11-18_20h34.49.712,Colour_Similarity_Experiment,2020.1.2,Linux x86_64,60,5fb5945709dec70f2d595766,,,,,,,,,,,,,,,,,,,,FF,,,,,,,,7,1.03584,,,,,,,,,,,,,,,,,,,,,,,,,,,,6,64,106,1,0,0,response1disk,2,5,-14,1,0,0,rectangle,5,-14,1,0,0,6,6,"[103,96,157,179,288,77,221,50,43,184,302,57,134,263,228,146,182,12,2,274]",5,-14,1,0,0,0,28,27,27,112,1,,,,,,,,,,,,,,,,,,,,,
,,,,,,,,,,,,,,,,,,,,,,,,,,,,,,,,,,,,,,,,,,,5cf80c2ccbe8f10016dba137,5fb5d95ea1b9851d799bf75a,2020-11-18_20h34.49.712,Colour_Similarity_Experiment,2020.1.2,Linux x86_64,60,5fb5945709dec70f2d595766,,,,,,,,,,,,,,,,,,,,FF,,,,,,,,7,1.47414,,,,,,,,,,,,,,,,,,,,,,,,,,,,9,48,104,1,0,0,response1disk,6,2,3,1,0,0,rectangle,2,3,1,0,0,6,2,"[103,96,157,179,288,77,221,50,43,184,302,57,134,263,228,146,182,12,2,274]",2,3,1,0,0,0,29,28,28,117,1,,,,,,,,,,,,,,,,,,,,,
,,,,,,,,,,,,,,,,,,,,,,,,,,,,,,,,,,,,,,,,,,,5cf80c2ccbe8f10016dba137,5fb5d95ea1b9851d799bf75a,2020-11-18_20h34.49.712,Colour_Similarity_Experiment,2020.1.2,Linux x86_64,60,5fb5945709dec70f2d595766,,,,,,,,,,,,,,,,,,,,PF,,,,,,,,7,1.490685,,,,,,,,,,,,,,,,,,,,,,,,,,,,4,56,94,1,0,0,response1disk,2,23,0,1,0,0,rectangle,23,0,1,0,0,6,2,"[103,96,157,179,288,77,221,50,43,184,302,57,134,263,228,146,182,12,2,274]",23,0,1,0,0,0,30,29,29,108,1,,,,,,,,,,,,,,,,,,,,,
,,,,,,,,,,,,,,,,,,,,,,,,,,,,,,,,,,,,,,,,,,,5cf80c2ccbe8f10016dba137,5fb5d95ea1b9851d799bf75a,2020-11-18_20h34.49.712,Colour_Similarity_Experiment,2020.1.2,Linux x86_64,60,5fb5945709dec70f2d595766,,,,,,,,,,,,,,,,,,,,PF,,,,,,,,7,1.00072,,,,,,,,,,,,,,,,,,,,,,,,,,,,7,72,125,1,0,0,response1disk,1,23,-11,1,0,0,rectangle,23,-11,1,0,0,6,4,"[103,96,157,179,288,77,221,50,43,184,302,57,134,263,228,146,182,12,2,274]",23,-11,1,0,0,0,31,30,30,53,1,,,,,,,,,,,,,,,,,,,,,
,,,,,,,,,,,,,,,,,,,,,,,,,,,,,,,,,,,,,,,,,,,5cf80c2ccbe8f10016dba137,5fb5d95ea1b9851d799bf75a,2020-11-18_20h34.49.712,Colour_Similarity_Experiment,2020.1.2,Linux x86_64,60,5fb5945709dec70f2d595766,,,,,,,,,,,,,,,,,,,,PF,,,,,,,,7,1.14071,,,,,,,,,,,,,,,,,,,,,,,,,,,,7,64,86,1,0,0,response1disk,3,23,-8,1,0,0,rectangle,23,-8,1,0,0,6,3,"[103,96,157,179,288,77,221,50,43,184,302,57,134,263,228,146,182,12,2,274]",23,-8,1,0,0,0,32,31,31,81,1,,,,,,,,,,,,,,,,,,,,,
,,,,,,,,,,,,,,,,,,,,,,,,,,,,,,,,,,,,,,,,,,,5cf80c2ccbe8f10016dba137,5fb5d95ea1b9851d799bf75a,2020-11-18_20h34.49.712,Colour_Similarity_Experiment,2020.1.2,Linux x86_64,60,5fb5945709dec70f2d595766,,,,,,,,,,,,,,,,,,,,FF,,,,,,,,6,1.240385,,,,,,,,,,,,,,,,,,,,,,,,,,,,8,127,53,1,0,0,response1disk,9,43,4,1,0,0,rectangle,43,4,1,0,0,6,7,"[103,96,157,179,288,77,221,50,43,184,302,57,134,263,228,146,182,12,2,274]",43,4,1,0,0,0,33,32,32,105,1,,,,,,,,,,,,,,,,,,,,,
,,,,,,,,,,,,,,,,,,,,,,,,,,,,,,,,,,,,,,,,,,,5cf80c2ccbe8f10016dba137,5fb5d95ea1b9851d799bf75a,2020-11-18_20h34.49.712,Colour_Similarity_Experiment,2020.1.2,Linux x86_64,60,5fb5945709dec70f2d595766,,,,,,,,,,,,,,,,,,,,PF,,,,,,,,7,0.78234,,,,,,,,,,,,,,,,,,,,,,,,,,,,9,40,91,1,0,0,response1disk,4,17,-3,1,0,0,rectangle,17,-3,1,0,0,6,3,"[103,96,157,179,288,77,221,50,43,184,302,57,134,263,228,146,182,12,2,274]",17,-3,1,0,0,0,34,33,33,114,1,,,,,,,,,,,,,,,,,,,,,
,,,,,,,,,,,,,,,,,,,,,,,,,,,,,,,,,,,,,,,,,,,5cf80c2ccbe8f10016dba137,5fb5d95ea1b9851d799bf75a,2020-11-18_20h34.49.712,Colour_Similarity_Experiment,2020.1.2,Linux x86_64,60,5fb5945709dec70f2d595766,,,,,,,,,,,,,,,,,,,,FF,,,,,,,,7,1.01656,,,,,,,,,,,,,,,,,,,,,,,,,,,,1,76,102,1,0,0,response1disk,4,38,-3,1,0,0,rectangle,38,-3,1,0,0,6,5,"[103,96,157,179,288,77,221,50,43,184,302,57,134,263,228,146,182,12,2,274]",38,-3,1,0,0,0,35,34,34,135,1,,,,,,,,,,,,,,,,,,,,,
,,,,,,,,,,,,,,,,,,,,,,,,,,,,,,,,,,,,,,,,,,,5cf80c2ccbe8f10016dba137,5fb5d95ea1b9851d799bf75a,2020-11-18_20h34.49.712,Colour_Similarity_Experiment,2020.1.2,Linux x86_64,60,5fb5945709dec70f2d595766,,,,,,,,,,,,,,,,,,,,PF,,,,,,,,7,1.000575,,,,,,,,,,,,,,,,,,,,,,,,,,,,8,38,97,1,0,0,response1disk,5,3,-18,1,0,0,rectangle,3,-18,1,0,0,6,2,"[103,96,157,179,288,77,221,50,43,184,302,57,134,263,228,146,182,12,2,274]",3,-18,1,0,0,0,36,35,35,98,1,,,,,,,,,,,,,,,,,,,,,
,,,,,,,,,,,,,,,,,,,,,,,,,,,,,,,,,,,,,,,,,,,5cf80c2ccbe8f10016dba137,5fb5d95ea1b9851d799bf75a,2020-11-18_20h34.49.712,Colour_Similarity_Experiment,2020.1.2,Linux x86_64,60,5fb5945709dec70f2d595766,,,,,,,,,,,,,,,,,,,,FF,,,,,,,,3,1.91309,,,,,,,,,,,,,,,,,,,,,,,,,,,,6,-60,-113,1,0,0,response5disk,7,28,-11,1,0,0,rectangle,28,-11,1,0,0,6,3,"[103,96,157,179,288,77,221,50,43,184,302,57,134,263,228,146,182,12,2,274]",28,-11,1,0,0,0,37,36,36,18,1,,,,,,,,,,,,,,,,,,,,,
,,,,,,,,,,,,,,,,,,,,,,,,,,,,,,,,,,,,,,,,,,,5cf80c2ccbe8f10016dba137,5fb5d95ea1b9851d799bf75a,2020-11-18_20h34.49.712,Colour_Similarity_Experiment,2020.1.2,Linux x86_64,60,5fb5945709dec70f2d595766,,,,,,,,,,,,,,,,,,,,FF,,,,,,,,6,1.92672,,,,,,,,,,,,,,,,,,,,,,,,,,,,9,110,41,1,0,0,response1disk,1,25,-16,1,0,0,rectangle,25,-16,1,0,0,6,4,"[103,96,157,179,288,77,221,50,43,184,302,57,134,263,228,146,182,12,2,274]",25,-16,1,0,0,0,38,37,37,111,1,,,,,,,,,,,,,,,,,,,,,
,,,,,,,,,,,,,,,,,,,,,,,,,,,,,,,,,,,,,,,,,,,5cf80c2ccbe8f10016dba137,5fb5d95ea1b9851d799bf75a,2020-11-18_20h34.49.712,Colour_Similarity_Experiment,2020.1.2,Linux x86_64,60,5fb5945709dec70f2d595766,,,,,,,,,,,,,,,,,,,,FF,,,,,,,,7,1.036295,,,,,,,,,,,,,,,,,,,,,,,,,,,,5,56,79,1,0,0,response1disk,7,22,-9,1,0,0,rectangle,22,-9,1,0,0,6,6,"[103,96,157,179,288,77,221,50,43,184,302,57,134,263,228,146,182,12,2,274]",22,-9,1,0,0,0,39,38,38,7,1,,,,,,,,,,,,,,,,,,,,,
,,,,,,,,,,,,,,,,,,,,,,,,,,,,,,,,,,,,,,,,,,,5cf80c2ccbe8f10016dba137,5fb5d95ea1b9851d799bf75a,2020-11-18_20h34.49.712,Colour_Similarity_Experiment,2020.1.2,Linux x86_64,60,5fb5945709dec70f2d595766,,,,,,,,,,,,,,,,,,,,FF,,,,,,,,7,2.118925,,,,,,,,,,,,,,,,,,,,,,,,,,,,2,45,126,1,0,0,response1disk,8,19,16,1,0,0,rectangle,19,16,1,0,0,6,6,"[103,96,157,179,288,77,221,50,43,184,302,57,134,263,228,146,182,12,2,274]",19,16,1,0,0,0,40,39,39,62,1,,,,,,,,,,,,,,,,,,,,,
,,,,,,,,,,,,,,,,,,,,,,,,,,,,,,,,,,,,,,,,,,,5cf80c2ccbe8f10016dba137,5fb5d95ea1b9851d799bf75a,2020-11-18_20h34.49.712,Colour_Similarity_Experiment,2020.1.2,Linux x86_64,60,5fb5945709dec70f2d595766,,,,,,,,,,,,,,,,,,,,PF,,,,,,,,7,1.14146,,,,,,,,,,,,,,,,,,,,,,,,,,,,8,63,99,1,0,0,response1disk,1,7,8,1,0,0,rectangle,7,8,1,0,0,6,4,"[103,96,157,179,288,77,221,50,43,184,302,57,134,263,228,146,182,12,2,274]",7,8,1,0,0,0,41,40,40,57,1,,,,,,,,,,,,,,,,,,,,,
,,,,,,,,,,,,,,,,,,,,,,,,,,,,,,,,,,,,,,,,,,,5cf80c2ccbe8f10016dba137,5fb5d95ea1b9851d799bf75a,2020-11-18_20h34.49.712,Colour_Similarity_Experiment,2020.1.2,Linux x86_64,60,5fb5945709dec70f2d595766,,,,,,,,,,,,,,,,,,,,FF,,,,,,,,6,1.15496,,,,,,,,,,,,,,,,,,,,,,,,,,,,6,105,54,1,0,0,response1disk,5,26,-16,1,0,0,rectangle,26,-16,1,0,0,6,3,"[103,96,157,179,288,77,221,50,43,184,302,57,134,263,228,146,182,12,2,274]",26,-16,1,0,0,0,42,41,41,126,1,,,,,,,,,,,,,,,,,,,,,
,,,,,,,,,,,,,,,,,,,,,,,,,,,,,,,,,,,,,,,,,,,5cf80c2ccbe8f10016dba137,5fb5d95ea1b9851d799bf75a,2020-11-18_20h34.49.712,Colour_Similarity_Experiment,2020.1.2,Linux x86_64,60,5fb5945709dec70f2d595766,,,,,,,,,,,,,,,,,,,,FF,,,,,,,,7,0.76909,,,,,,,,,,,,,,,,,,,,,,,,,,,,7,57,101,1,0,0,response1disk,4,23,8,1,0,0,rectangle,145,61,1,0,0,6,6,"[103,96,157,179,288,77,221,50,43,184,302,57,134,263,228,146,182,12,2,274]",41,12,1,0,0,0,43,42,42,158,1,response1disk_3,rectangle,,,,,,,,,,,,,,,,,,,
,,,,,,,,,,,,,,,,,,,,,,,,,,,,,,,,,,,,,,,,,,,5cf80c2ccbe8f10016dba137,5fb5d95ea1b9851d799bf75a,2020-11-18_20h34.49.712,Colour_Similarity_Experiment,2020.1.2,Linux x86_64,60,5fb5945709dec70f2d595766,,,,,,,,,,,,,,,,,,,,PF,,,,,,,,7,1.049495,,,,,,,,,,,,,,,,,,,,,,,,,,,,2,33,85,1,0,0,response1disk,7,-20,-10,1,0,0,rectangle,-20,-10,1,0,0,6,4,"[103,96,157,179,288,77,221,50,43,184,302,57,134,263,228,146,182,12,2,274]",-20,-10,1,0,0,0,44,43,43,107,1,,,,,,,,,,,,,,,,,,,,,
,,,,,,,,,,,,,,,,,,,,,,,,,,,,,,,,,,,,,,,,,,,5cf80c2ccbe8f10016dba137,5fb5d95ea1b9851d799bf75a,2020-11-18_20h34.49.712,Colour_Similarity_Experiment,2020.1.2,Linux x86_64,60,5fb5945709dec70f2d595766,,,,,,,,,,,,,,,,,,,,PF,,,,,,,,7,1.89298,,,,,,,,,,,,,,,,,,,,,,,,,,,,6,49,73,1,0,0,response1disk,1,-5,1,1,0,0,rectangle,-5,1,1,0,0,6,2,"[103,96,157,179,288,77,221,50,43,184,302,57,134,263,228,146,182,12,2,274]",-5,1,1,0,0,0,45,44,44,46,1,,,,,,,,,,,,,,,,,,,,,
,,,,,,,,,,,,,,,,,,,,,,,,,,,,,,,,,,,,,,,,,,,5cf80c2ccbe8f10016dba137,5fb5d95ea1b9851d799bf75a,2020-11-18_20h34.49.712,Colour_Similarity_Experiment,2020.1.2,Linux x86_64,60,5fb5945709dec70f2d595766,,,,,,,,,,,,,,,,,,,,PF,,,,,,,,6,1.517025,,,,,,,,,,,,,,,,,,,,,,,,,,,,2,105,33,1,0,0,response1disk,8,16,4,1,0,0,rectangle,16,4,1,0,0,6,4,"[103,96,157,179,288,77,221,50,43,184,302,57,134,263,228,146,182,12,2,274]",16,4,1,0,0,0,46,45,45,52,1,,,,,,,,,,,,,,,,,,,,,
,,,,,,,,,,,,,,,,,,,,,,,,,,,,,,,,,,,,,,,,,,,5cf80c2ccbe8f10016dba137,5fb5d95ea1b9851d799bf75a,2020-11-18_20h34.49.712,Colour_Similarity_Experiment,2020.1.2,Linux x86_64,60,5fb5945709dec70f2d595766,,,,,,,,,,,,,,,,,,,,PF,,,,,,,,7,1.046655,,,,,,,,,,,,,,,,,,,,,,,,,,,,1,46,92,1,0,0,response1disk,4,5,11,1,0,0,rectangle,5,11,1,0,0,6,3,"[103,96,157,179,288,77,221,50,43,184,302,57,134,263,228,146,182,12,2,274]",5,11,1,0,0,0,47,46,46,139,1,,,,,,,,,,,,,,,,,,,,,
,,,,,,,,,,,,,,,,,,,,,,,,,,,,,,,,,,,,,,,,,,,5cf80c2ccbe8f10016dba137,5fb5d95ea1b9851d799bf75a,2020-11-18_20h34.49.712,Colour_Similarity_Experiment,2020.1.2,Linux x86_64,60,5fb5945709dec70f2d595766,,,,,,,,,,,,,,,,,,,,FF,,,,,,,,0,1.78464,,,,,,,,,,,,,,,,,,,,,,,,,,,,1,-49,99,1,0,0,response7disk,1,2,-18,1,0,0,rectangle,2,-18,1,0,0,6,0,"[103,96,157,179,288,77,221,50,43,184,302,57,134,263,228,146,182,12,2,274]",2,-18,1,0,0,0,48,47,47,151,1,,,,,,,,,,,,,,,,,,,,,
,,,,,,,,,,,,,,,,,,,,,,,,,,,,,,,,,,,,,,,,,,,5cf80c2ccbe8f10016dba137,5fb5d95ea1b9851d799bf75a,2020-11-18_20h34.49.712,Colour_Similarity_Experiment,2020.1.2,Linux x86_64,60,5fb5945709dec70f2d595766,,,,,,,,,,,,,,,,,,,,FF,,,,,,,,3,2.136125,,,,,,,,,,,,,,,,,,,,,,,,,,,,8,-24,-130,1,0,0,response5disk,7,19,-4,1,0,0,rectangle,19,-4,1,0,0,6,2,"[103,96,157,179,288,77,221,50,43,184,302,57,134,263,228,146,182,12,2,274]",19,-4,1,0,0,0,49,48,48,86,1,,,,,,,,,,,,,,,,,,,,,
,,,,,,,,,,,,,,,,,,,,,,,,,,,,,,,,,,,,,,,,,,,5cf80c2ccbe8f10016dba137,5fb5d95ea1b9851d799bf75a,2020-11-18_20h34.49.712,Colour_Similarity_Experiment,2020.1.2,Linux x86_64,60,5fb5945709dec70f2d595766,,,,,,,,,,,,,,,,,,,,FF,,,,,,,,7,1.277495,,,,,,,,,,,,,,,,,,,,,,,,,,,,9,52,79,1,0,0,response1disk,2,16,1,1,0,0,rectangle,64,119,1,0,0,7,7,"[103,96,157,179,288,77,221,50,43,184,302,57,134,263,228,146,182,12,2,274]",-6,-10,1,0,0,0,50,49,49,11,1,response1disk_3,rectangle,,,,,,,,,,,,,,,,,,,
,,,,,,,,,,,,,,,,,,,,,,,,,,,,,,,,,,,,,,,,,,,5cf80c2ccbe8f10016dba137,5fb5d95ea1b9851d799bf75a,2020-11-18_20h34.49.712,Colour_Similarity_Experiment,2020.1.2,Linux x86_64,60,5fb5945709dec70f2d595766,,,,,,,,,,,,,,,,,,,,PF,,,,,,,,1,1.780405,,,,,,,,,,,,,,,,,,,,,,,,,,,,3,-100,45,1,0,0,response7disk,3,1,8,1,0,0,rectangle,1,8,1,0,0,7,6,"[103,96,157,179,288,77,221,50,43,184,302,57,134,263,228,146,182,12,2,274]",1,8,1,0,0,0,51,50,50,4,1,,,,,,,,,,,,,,,,,,,,,
,,,,,,,,,,,,,,,,,,,,,,,,,,,,,,,,,,,,,,,,,,,5cf80c2ccbe8f10016dba137,5fb5d95ea1b9851d799bf75a,2020-11-18_20h34.49.712,Colour_Similarity_Experiment,2020.1.2,Linux x86_64,60,5fb5945709dec70f2d595766,,,,,,,,,,,,,,,,,,,,FF,,,,,,,,7,1.14158,,,,,,,,,,,,,,,,,,,,,,,,,,,,8,67,104,1,0,0,response1disk,2,26,2,1,0,0,rectangle,26,2,1,0,0,7,3,"[103,96,157,179,288,77,221,50,43,184,302,57,134,263,228,146,182,12,2,274]",26,2,1,0,0,0,52,51,51,22,1,,,,,,,,,,,,,,,,,,,,,
,,,,,,,,,,,,,,,,,,,,,,,,,,,,,,,,,,,,,,,,,,,5cf80c2ccbe8f10016dba137,5fb5d95ea1b9851d799bf75a,2020-11-18_20h34.49.712,Colour_Similarity_Experiment,2020.1.2,Linux x86_64,60,5fb5945709dec70f2d595766,,,,,,,,,,,,,,,,,,,,PF,,,,,,,,0,1.41255,,,,,,,,,,,,,,,,,,,,,,,,,,,,8,-55,115,1,0,0,response7disk,8,6,-21,1,0,0,rectangle,6,-21,1,0,0,7,3,"[103,96,157,179,288,77,221,50,43,184,302,57,134,263,228,146,182,12,2,274]",6,-21,1,0,0,0,53,52,52,153,1,,,,,,,,,,,,,,,,,,,,,
,,,,,,,,,,,,,,,,,,,,,,,,,,,,,,,,,,,,,,,,,,,5cf80c2ccbe8f10016dba137,5fb5d95ea1b9851d799bf75a,2020-11-18_20h34.49.712,Colour_Similarity_Experiment,2020.1.2,Linux x86_64,60,5fb5945709dec70f2d595766,,,,,,,,,,,,,,,,,,,,PF,,,,,,,,6,3.612345,,,,,,,,,,,,,,,,,,,,,,,,,,,,3,107,50,1,0,0,response1disk,6,-5,-4,1,0,0,rectangle,-5,-4,1,0,0,7,1,"[103,96,157,179,288,77,221,50,43,184,302,57,134,263,228,146,182,12,2,274]",-5,-4,1,0,0,0,54,53,53,47,1,,,,,,,,,,,,,,,,,,,,,
,,,,,,,,,,,,,,,,,,,,,,,,,,,,,,,,,,,,,,,,,,,5cf80c2ccbe8f10016dba137,5fb5d95ea1b9851d799bf75a,2020-11-18_20h34.49.712,Colour_Similarity_Experiment,2020.1.2,Linux x86_64,60,5fb5945709dec70f2d595766,,,,,,,,,,,,,,,,,,,,FF,,,,,,,,4,2.02504,,,,,,,,,,,,,,,,,,,,,,,,,,,,5,60,-109,1,0,0,response3disk,3,1,11,1,0,0,rectangle,1,11,1,0,0,7,1,"[103,96,157,179,288,77,221,50,43,184,302,57,134,263,228,146,182,12,2,274]",1,11,1,0,0,0,55,54,54,25,1,,,,,,,,,,,,,,,,,,,,,
,,,,,,,,,,,,,,,,,,,,,,,,,,,,,,,,,,,,,,,,,,,5cf80c2ccbe8f10016dba137,5fb5d95ea1b9851d799bf75a,2020-11-18_20h34.49.712,Colour_Similarity_Experiment,2020.1.2,Linux x86_64,60,5fb5945709dec70f2d595766,,,,,,,,,,,,,,,,,,,,PF,,,,,,,,6,1.944905,,,,,,,,,,,,,,,,,,,,,,,,,,,,7,124,38,1,0,0,response1disk,5,-12,3,1,0,0,rectangle,-12,3,1,0,0,7,3,"[103,96,157,179,288,77,221,50,43,184,302,57,134,263,228,146,182,12,2,274]",-12,3,1,0,0,0,56,55,55,92,1,,,,,,,,,,,,,,,,,,,,,
,,,,,,,,,,,,,,,,,,,,,,,,,,,,,,,,,,,,,,,,,,,5cf80c2ccbe8f10016dba137,5fb5d95ea1b9851d799bf75a,2020-11-18_20h34.49.712,Colour_Similarity_Experiment,2020.1.2,Linux x86_64,60,5fb5945709dec70f2d595766,,,,,,,,,,,,,,,,,,,,PF,,,,,,,,0,0.997915,,,,,,,,,,,,,,,,,,,,,,,,,,,,5,-44,83,1,0,0,response7disk,5,-10,-6,1,0,0,rectangle,133,-54,1,0,0,5,5,"[103,96,157,179,288,77,221,50,43,184,302,57,134,263,228,146,182,12,2,274]",5,2,1,0,0,0,57,56,56,94,1,response3disk_3,rectangle,,,,,,,,,,,,,,,,,,,
,,,,,,,,,,,,,,,,,,,,,,,,,,,,,,,,,,,,,,,,,,,5cf80c2ccbe8f10016dba137,5fb5d95ea1b9851d799bf75a,2020-11-18_20h34.49.712,Colour_Similarity_Experiment,2020.1.2,Linux x86_64,60,5fb5945709dec70f2d595766,,,,,,,,,,,,,,,,,,,,PF,,,,,,,,7,1.40094,,,,,,,,,,,,,,,,,,,,,,,,,,,,9,64,85,1,0,0,response1disk,3,-5,-4,1,0,0,rectangle,-5,-4,1,0,0,5,3,"[103,96,157,179,288,77,221,50,43,184,302,57,134,263,228,146,182,12,2,274]",-5,-4,1,0,0,0,58,57,57,119,1,,,,,,,,,,,,,,,,,,,,,
,,,,,,,,,,,,,,,,,,,,,,,,,,,,,,,,,,,,,,,,,,,5cf80c2ccbe8f10016dba137,5fb5d95ea1b9851d799bf75a,2020-11-18_20h34.49.712,Colour_Similarity_Experiment,2020.1.2,Linux x86_64,60,5fb5945709dec70f2d595766,,,,,,,,,,,,,,,,,,,,PF,,,,,,,,6,2.13925,,,,,,,,,,,,,,,,,,,,,,,,,,,,4,159,28,1,0,0,response1disk,6,-17,-1,1,0,0,rectangle,-17,-1,1,0,0,5,0,"[103,96,157,179,288,77,221,50,43,184,302,57,134,263,228,146,182,12,2,274]",-17,-1,1,0,0,0,59,58,58,120,1,,,,,,,,,,,,,,,,,,,,,
,,,,,,,,,,,,,,,,,,,,,,,,,,,,,,,,,,,,,,,,,,,5cf80c2ccbe8f10016dba137,5fb5d95ea1b9851d799bf75a,2020-11-18_20h34.49.712,Colour_Similarity_Experiment,2020.1.2,Linux x86_64,60,5fb5945709dec70f2d595766,,,,,,,,,,,,,,,,,,,,FF,,,,,,,,7,1.388045,,,,,,,,,,,,,,,,,,,,,,,,,,,,5,53,95,1,0,0,response1disk,8,19,12,1,0,0,rectangle,19,12,1,0,0,5,6,"[103,96,157,179,288,77,221,50,43,184,302,57,134,263,228,146,182,12,2,274]",19,12,1,0,0,0,60,59,59,16,1,,,,,,,,,,,,,,,,,,,,,
,,,,,,,,,,,,,,,,,,,,,,,,,,,,,,,,,,,,,,,,,,,5cf80c2ccbe8f10016dba137,5fb5d95ea1b9851d799bf75a,2020-11-18_20h34.49.712,Colour_Similarity_Experiment,2020.1.2,Linux x86_64,60,5fb5945709dec70f2d595766,,,,,,,,,,,,,,,,,,,,FF,,,,,,,,0,1.033005,,,,,,,,,,,,,,,,,,,,,,,,,,,,3,-35,91,1,0,0,response7disk,3,11,4,1,0,0,rectangle,11,4,1,0,0,5,1,"[103,96,157,179,288,77,221,50,43,184,302,57,134,263,228,146,182,12,2,274]",11,4,1,0,0,0,61,60,60,68,1,,,,,,,,,,,,,,,,,,,,,
,,,,,,,,,,,,,,,,,,,,,,,,,,,,,,,,,,,,,,,,,,,5cf80c2ccbe8f10016dba137,5fb5d95ea1b9851d799bf75a,2020-11-18_20h34.49.712,Colour_Similarity_Experiment,2020.1.2,Linux x86_64,60,5fb5945709dec70f2d595766,,,,,,,,,,,,,,,,,,,,FF,,,,,,,,1,1.17372,,,,,,,,,,,,,,,,,,,,,,,,,,,,3,-90,48,1,0,0,response7disk,4,-1,3,1,0,0,rectangle,-1,3,1,0,0,5,1,"[103,96,157,179,288,77,221,50,43,184,302,57,134,263,228,146,182,12,2,274]",-1,3,1,0,0,0,62,61,61,110,1,,,,,,,,,,,,,,,,,,,,,
,,,,,,,,,,,,,,,,,,,,,,,,,,,,,,,,,,,,,,,,,,,5cf80c2ccbe8f10016dba137,5fb5d95ea1b9851d799bf75a,2020-11-18_20h34.49.712,Colour_Similarity_Experiment,2020.1.2,Linux x86_64,60,5fb5945709dec70f2d595766,,,,,,,,,,,,,,,,,,,,PF,,,,,,,,7,1.619595,,,,,,,,,,,,,,,,,,,,,,,,,,,,3,73,84,1,0,0,response1disk,7,23,7,1,0,0,rectangle,23,7,1,0,0,5,2,"[103,96,157,179,288,77,221,50,43,184,302,57,134,263,228,146,182,12,2,274]",23,7,1,0,0,0,63,62,62,41,1,,,,,,,,,,,,,,,,,,,,,
,,,,,,,,,,,,,,,,,,,,,,,,,,,,,,,,,,,,,,,,,,,5cf80c2ccbe8f10016dba137,5fb5d95ea1b9851d799bf75a,2020-11-18_20h34.49.712,Colour_Similarity_Experiment,2020.1.2,Linux x86_64,60,5fb5945709dec70f2d595766,,,,,,,,,,,,,,,,,,,,FF,,,,,,,,6,1.646,,,,,,,,,,,,,,,,,,,,,,,,,,,,3,119,95,1,0,0,response1disk,2,20,20,1,0,0,rectangle,20,20,1,0,0,5,6,"[103,96,157,179,288,77,221,50,43,184,302,57,134,263,228,146,182,12,2,274]",20,20,1,0,0,0,64,63,63,93,1,,,,,,,,,,,,,,,,,,,,,
,,,,,,,,,,,,,,,,,,,,,,,,,,,,,,,,,,,,,,,,,,,5cf80c2ccbe8f10016dba137,5fb5d95ea1b9851d799bf75a,2020-11-18_20h34.49.712,Colour_Similarity_Experiment,2020.1.2,Linux x86_64,60,5fb5945709dec70f2d595766,,,,,,,,,,,,,,,,,,,,PF,,,,,,,,7,1.007485,,,,,,,,,,,,,,,,,,,,,,,,,,,,4,49,98,1,0,0,response1disk,1,2,-10,1,0,0,rectangle,2,-10,1,0,0,5,5,"[103,96,157,179,288,77,221,50,43,184,302,57,134,263,228,146,182,12,2,274]",2,-10,1,0,0,0,65,64,64,115,1,,,,,,,,,,,,,,,,,,,,,
,,,,,,,,,,,,,,,,,,,,,,,,,,,,,,,,,,,,,,,,,,,5cf80c2ccbe8f10016dba137,5fb5d95ea1b9851d799bf75a,2020-11-18_20h34.49.712,Colour_Similarity_Experiment,2020.1.2,Linux x86_64,60,5fb5945709dec70f2d595766,,,,,,,,,,,,,,,,,,,,FF,,,,,,,,5,2.566475,,,,,,,,,,,,,,,,,,,,,,,,,,,,9,135,-42,1,0,0,response3disk,8,22,-1,1,0,0,rectangle,22,-1,1,0,0,5,2,"[103,96,157,179,288,77,221,50,43,184,302,57,134,263,228,146,182,12,2,274]",22,-1,1,0,0,0,66,65,65,6,1,,,,,,,,,,,,,,,,,,,,,
,,,,,,,,,,,,,,,,,,,,,,,,,,,,,,,,,,,,,,,,,,,5cf80c2ccbe8f10016dba137,5fb5d95ea1b9851d799bf75a,2020-11-18_20h34.49.712,Colour_Similarity_Experiment,2020.1.2,Linux x86_64,60,5fb5945709dec70f2d595766,,,,,,,,,,,,,,,,,,,,PF,,,,,,,,7,0.89937,,,,,,,,,,,,,,,,,,,,,,,,,,,,1,102,116,1,0,0,response1disk,3,20,11,1,0,0,rectangle,20,11,1,0,0,5,2,"[103,96,157,179,288,77,221,50,43,184,302,57,134,263,228,146,182,12,2,274]",20,11,1,0,0,0,67,66,66,1,1,,,,,,,,,,,,,,,,,,,,,
,,,,,,,,,,,,,,,,,,,,,,,,,,,,,,,,,,,,,,,,,,,5cf80c2ccbe8f10016dba137,5fb5d95ea1b9851d799bf75a,2020-11-18_20h34.49.712,Colour_Similarity_Experiment,2020.1.2,Linux x86_64,60,5fb5945709dec70f2d595766,,,,,,,,,,,,,,,,,,,,PF,,,,,,,,6,1.478725,,,,,,,,,,,,,,,,,,,,,,,,,,,,5,98,39,1,0,0,response1disk,6,31,-5,1,0,0,rectangle,31,-5,1,0,0,5,6,"[103,96,157,179,288,77,221,50,43,184,302,57,134,263,228,146,182,12,2,274]",31,-5,1,0,0,0,68,67,67,103,1,,,,,,,,,,,,,,,,,,,,,
,,,,,,,,,,,,,,,,,,,,,,,,,,,,,,,,,,,,,,,,,,,5cf80c2ccbe8f10016dba137,5fb5d95ea1b9851d799bf75a,2020-11-18_20h34.49.712,Colour_Similarity_Experiment,2020.1.2,Linux x86_64,60,5fb5945709dec70f2d595766,,,,,,,,,,,,,,,,,,,,PF,,,,,,,,7,1.976045,,,,,,,,,,,,,,,,,,,,,,,,,,,,3,57,119,1,0,0,response1disk,8,21,17,1,0,0,rectangle,21,17,1,0,0,5,6,"[103,96,157,179,288,77,221,50,43,184,302,57,134,263,228,146,182,12,2,274]",21,17,1,0,0,0,69,68,68,3,1,,,,,,,,,,,,,,,,,,,,,
,,,,,,,,,,,,,,,,,,,,,,,,,,,,,,,,,,,,,,,,,,,5cf80c2ccbe8f10016dba137,5fb5d95ea1b9851d799bf75a,2020-11-18_20h34.49.712,Colour_Similarity_Experiment,2020.1.2,Linux x86_64,60,5fb5945709dec70f2d595766,,,,,,,,,,,,,,,,,,,,PF,,,,,,,,5,1.83899,,,,,,,,,,,,,,,,,,,,,,,,,,,,9,96,-32,1,0,0,response3disk,8,5,-15,1,0,0,rectangle,5,-15,1,0,0,5,3,"[103,96,157,179,288,77,221,50,43,184,302,57,134,263,228,146,182,12,2,274]",5,-15,1,0,0,0,70,69,69,67,1,,,,,,,,,,,,,,,,,,,,,
,,,,,,,,,,,,,,,,,,,,,,,,,,,,,,,,,,,,,,,,,,,5cf80c2ccbe8f10016dba137,5fb5d95ea1b9851d799bf75a,2020-11-18_20h34.49.712,Colour_Similarity_Experiment,2020.1.2,Linux x86_64,60,5fb5945709dec70f2d595766,,,,,,,,,,,,,,,,,,,,FF,,,,,,,,7,0.865825,,,,,,,,,,,,,,,,,,,,,,,,,,,,2,53,103,1,0,0,response1disk,7,12,8,1,0,0,rectangle,12,8,1,0,0,5,6,"[103,96,157,179,288,77,221,50,43,184,302,57,134,263,228,146,182,12,2,274]",12,8,1,0,0,0,71,70,70,63,1,,,,,,,,,,,,,,,,,,,,,
,,,,,,,,,,,,,,,,,,,,,,,,,,,,,,,,,,,,,,,,,,,5cf80c2ccbe8f10016dba137,5fb5d95ea1b9851d799bf75a,2020-11-18_20h34.49.712,Colour_Similarity_Experiment,2020.1.2,Linux x86_64,60,5fb5945709dec70f2d595766,,,,,,,,,,,,,,,,,,,,FF,,,,,,,,5,2.06771,,,,,,,,,,,,,,,,,,,,,,,,,,,,1,116,-50,1,0,0,response3disk,9,-30,-21,1,0,0,rectangle,-30,-21,1,0,0,5,1,"[103,96,157,179,288,77,221,50,43,184,302,57,134,263,228,146,182,12,2,274]",-30,-21,1,0,0,0,72,71,71,123,1,,,,,,,,,,,,,,,,,,,,,
,,,,,,,,,,,,,,,,,,,,,,,,,,,,,,,,,,,,,,,,,,,5cf80c2ccbe8f10016dba137,5fb5d95ea1b9851d799bf75a,2020-11-18_20h34.49.712,Colour_Similarity_Experiment,2020.1.2,Linux x86_64,60,5fb5945709dec70f2d595766,,,,,,,,,,,,,,,,,,,,PF,,,,,,,,4,2.391405,,,,,,,,,,,,,,,,,,,,,,,,,,,,6,35,-138,1,0,0,response3disk,7,1,10,1,0,0,rectangle,1,10,1,0,0,5,1,"[103,96,157,179,288,77,221,50,43,184,302,57,134,263,228,146,182,12,2,274]",1,10,1,0,0,0,73,72,72,50,1,,,,,,,,,,,,,,,,,,,,,
,,,,,,,,,,,,,,,,,,,,,,,,,,,,,,,,,,,,,,,,,,,5cf80c2ccbe8f10016dba137,5fb5d95ea1b9851d799bf75a,2020-11-18_20h34.49.712,Colour_Similarity_Experiment,2020.1.2,Linux x86_64,60,5fb5945709dec70f2d595766,,,,,,,,,,,,,,,,,,,,FF,,,,,,,,7,0.901235,,,,,,,,,,,,,,,,,,,,,,,,,,,,5,54,96,1,0,0,response1disk,9,6,1,1,0,0,rectangle,6,1,1,0,0,5,6,"[103,96,157,179,288,77,221,50,43,184,302,57,134,263,228,146,182,12,2,274]",6,1,1,0,0,0,74,73,73,61,1,,,,,,,,,,,,,,,,,,,,,
,,,,,,,,,,,,,,,,,,,,,,,,,,,,,,,,,,,,,,,,,,,5cf80c2ccbe8f10016dba137,5fb5d95ea1b9851d799bf75a,2020-11-18_20h34.49.712,Colour_Similarity_Experiment,2020.1.2,Linux x86_64,60,5fb5945709dec70f2d595766,,,,,,,,,,,,,,,,,,,,FF,,,,,,,,7,1.018835,,,,,,,,,,,,,,,,,,,,,,,,,,,,6,42,86,1,0,0,response1disk,9,13,8,1,0,0,rectangle,13,8,1,0,0,5,4,"[103,96,157,179,288,77,221,50,43,184,302,57,134,263,228,146,182,12,2,274]",13,8,1,0,0,0,75,74,74,160,1,,,,,,,,,,,,,,,,,,,,,
,,,,,,,,,,,,,,,,,,,,,,,,,,,,,,,,,,,,,,,,,,,5cf80c2ccbe8f10016dba137,5fb5d95ea1b9851d799bf75a,2020-11-18_20h34.49.712,Colour_Similarity_Experiment,2020.1.2,Linux x86_64,60,5fb5945709dec70f2d595766,,,,,,,,,,,,,,,,,,,,FF,,,,,,,,5,1.262555,,,,,,,,,,,,,,,,,,,,,,,,,,,,5,91,-68,1,0,0,response3disk,6,12,5,1,0,0,rectangle,12,5,1,0,0,5,4,"[103,96,157,179,288,77,221,50,43,184,302,57,134,263,228,146,182,12,2,274]",12,5,1,0,0,0,76,75,75,12,1,,,,,,,,,,,,,,,,,,,,,
,,,,,,,,,,,,,,,,,,,,,,,,,,,,,,,,,,,,,,,,,,,5cf80c2ccbe8f10016dba137,5fb5d95ea1b9851d799bf75a,2020-11-18_20h34.49.712,Colour_Similarity_Experiment,2020.1.2,Linux x86_64,60,5fb5945709dec70f2d595766,,,,,,,,,,,,,,,,,,,,FF,,,,,,,,7,0.88148,,,,,,,,,,,,,,,,,,,,,,,,,,,,8,47,88,1,0,0,response1disk,3,29,4,1,0,0,rectangle,56,125,1,0,0,7,7,"[103,96,157,179,288,77,221,50,43,184,302,57,134,263,228,146,182,12,2,274]",-2,10,1,0,0,0,77,76,76,154,1,response1disk_3,rectangle,,,,,,,,,,,,,,,,,,,
,,,,,,,,,,,,,,,,,,,,,,,,,,,,,,,,,,,,,,,,,,,5cf80c2ccbe8f10016dba137,5fb5d95ea1b9851d799bf75a,2020-11-18_20h34.49.712,Colour_Similarity_Experiment,2020.1.2,Linux x86_64,60,5fb5945709dec70f2d595766,,,,,,,,,,,,,,,,,,,,FF,,,,,,,,7,1.032155,,,,,,,,,,,,,,,,,,,,,,,,,,,,7,64,109,1,0,0,response1disk,3,17,20,1,0,0,rectangle,17,20,1,0,0,7,0,"[103,96,157,179,288,77,221,50,43,184,302,57,134,263,228,146,182,12,2,274]",17,20,1,0,0,0,78,77,77,73,1,,,,,,,,,,,,,,,,,,,,,
,,,,,,,,,,,,,,,,,,,,,,,,,,,,,,,,,,,,,,,,,,,5cf80c2ccbe8f10016dba137,5fb5d95ea1b9851d799bf75a,2020-11-18_20h34.49.712,Colour_Similarity_Experiment,2020.1.2,Linux x86_64,60,5fb5945709dec70f2d595766,,,,,,,,,,,,,,,,,,,,PF,,,,,,,,7,0.762805,,,,,,,,,,,,,,,,,,,,,,,,,,,,8,72,92,1,0,0,response1disk,2,21,-14,1,0,0,rectangle,21,-14,1,0,0,7,4,"[103,96,157,179,288,77,221,50,43,184,302,57,134,263,228,146,182,12,2,274]",21,-14,1,0,0,0,79,78,78,83,1,,,,,,,,,,,,,,,,,,,,,
,,,,,,,,,,,,,,,,,,,,,,,,,,,,,,,,,,,,,,,,,,,5cf80c2ccbe8f10016dba137,5fb5d95ea1b9851d799bf75a,2020-11-18_20h34.49.712,Colour_Similarity_Experiment,2020.1.2,Linux x86_64,60,5fb5945709dec70f2d595766,,,,,,,,,,,,,,,,,,,,PF,,,,,,,,0,1.41882,,,,,,,,,,,,,,,,,,,,,,,,,,,,1,-55,90,1,0,0,response7disk,1,0,-5,1,0,0,rectangle,0,-5,1,0,0,7,2,"[103,96,157,179,288,77,221,50,43,184,302,57,134,263,228,146,182,12,2,274]",0,-5,1,0,0,0,80,79,79,76,1,,,,,,,,,,,,,,,,,,,,,
,,,,,,,,,,,,,,,,,,,,,,,,,,,,,,,,,,,,,,,,,,,5cf80c2ccbe8f10016dba137,5fb5d95ea1b9851d799bf75a,2020-11-18_20h34.49.712,Colour_Similarity_Experiment,2020.1.2,Linux x86_64,60,5fb5945709dec70f2d595766,,,,,,,,,,,,,,,,,,,,PF,,,,,,,,4,1.39025,,,,,,,,,,,,,,,,,,,,,,,,,,,,5,42,-98,1,0,0,response3disk,3,6,-12,1,0,0,rectangle,6,-12,1,0,0,7,1,"[103,96,157,179,288,77,221,50,43,184,302,57,134,263,228,146,182,12,2,274]",6,-12,1,0,0,0,81,80,80,109,1,,,,,,,,,,,,,,,,,,,,,
,,,,,,,,,,,,,,,,,,,,,,,,,,,,,,,,,,,,,,,,,,,5cf80c2ccbe8f10016dba137,5fb5d95ea1b9851d799bf75a,2020-11-18_20h34.49.712,Colour_Similarity_Experiment,2020.1.2,Linux x86_64,60,5fb5945709dec70f2d595766,,,,,,,,,,,,,,,,,,,,PF,,,,,,,,7,1.01744,,,,,,,,,,,,,,,,,,,,,,,,,,,,6,51,103,1,0,0,response1disk,2,4,13,1,0,0,rectangle,4,13,1,0,0,7,7,"[103,96,157,179,288,77,221,50,43,184,302,57,134,263,228,146,182,12,2,274]",4,13,1,0,0,0,82,81,81,130,1,,,,,,,,,,,,,,,,,,,,,
,,,,,,,,,,,,,,,,,,,,,,,,,,,,,,,,,,,,,,,,,,,5cf80c2ccbe8f10016dba137,5fb5d95ea1b9851d799bf75a,2020-11-18_20h34.49.712,Colour_Similarity_Experiment,2020.1.2,Linux x86_64,60,5fb5945709dec70f2d595766,,,,,,,,,,,,,,,,,,,,FF,,,,,,,,7,3.48408,,,,,,,,,,,,,,,,,,,,,,,,,,,,7,57,117,1,0,0,response1disk,1,14,17,1,0,0,rectangle,14,17,1,0,0,7,4,"[103,96,157,179,288,77,221,50,43,184,302,57,134,263,228,146,182,12,2,274]",14,17,1,0,0,0,83,82,82,132,1,,,,,,,,,,,,,,,,,,,,,
,,,,,,,,,,,,,,,,,,,,,,,,,,,,,,,,,,,,,,,,,,,5cf80c2ccbe8f10016dba137,5fb5d95ea1b9851d799bf75a,2020-11-18_20h34.49.712,Colour_Similarity_Experiment,2020.1.2,Linux x86_64,60,5fb5945709dec70f2d595766,,,,,,,,,,,,,,,,,,,,FF,,,,,,,,6,1.770695,,,,,,,,,,,,,,,,,,,,,,,,,,,,2,133,43,1,0,0,response1disk,3,2,-1,1,0,0,rectangle,2,-1,1,0,0,7,5,"[103,96,157,179,288,77,221,50,43,184,302,57,134,263,228,146,182,12,2,274]",2,-1,1,0,0,0,84,83,83,104,1,,,,,,,,,,,,,,,,,,,,,
,,,,,,,,,,,,,,,,,,,,,,,,,,,,,,,,,,,,,,,,,,,5cf80c2ccbe8f10016dba137,5fb5d95ea1b9851d799bf75a,2020-11-18_20h34.49.712,Colour_Similarity_Experiment,2020.1.2,Linux x86_64,60,5fb5945709dec70f2d595766,,,,,,,,,,,,,,,,,,,,PF,,,,,,,,6,1.62543,,,,,,,,,,,,,,,,,,,,,,,,,,,,6,96,68,1,0,0,response1disk,8,2,4,1,0,0,rectangle,2,4,1,0,0,7,5,"[103,96,157,179,288,77,221,50,43,184,302,57,134,263,228,146,182,12,2,274]",2,4,1,0,0,0,85,84,84,64,1,,,,,,,,,,,,,,,,,,,,,
,,,,,,,,,,,,,,,,,,,,,,,,,,,,,,,,,,,,,,,,,,,5cf80c2ccbe8f10016dba137,5fb5d95ea1b9851d799bf75a,2020-11-18_20h34.49.712,Colour_Similarity_Experiment,2020.1.2,Linux x86_64,60,5fb5945709dec70f2d595766,,,,,,,,,,,,,,,,,,,,FF,,,,,,,,0,1.14728,,,,,,,,,,,,,,,,,,,,,,,,,,,,8,-52,100,1,0,0,response7disk,8,16,-12,1,0,0,rectangle,16,-12,1,0,0,7,5,"[103,96,157,179,288,77,221,50,43,184,302,57,134,263,228,146,182,12,2,274]",16,-12,1,0,0,0,86,85,85,48,1,,,,,,,,,,,,,,,,,,,,,
,,,,,,,,,,,,,,,,,,,,,,,,,,,,,,,,,,,,,,,,,,,5cf80c2ccbe8f10016dba137,5fb5d95ea1b9851d799bf75a,2020-11-18_20h34.49.712,Colour_Similarity_Experiment,2020.1.2,Linux x86_64,60,5fb5945709dec70f2d595766,,,,,,,,,,,,,,,,,,,,PF,,,,,,,,6,3.04169,,,,,,,,,,,,,,,,,,,,,,,,,,,,1,124,57,1,0,0,response1disk,9,-8,16,1,0,0,rectangle,-8,16,1,0,0,7,6,"[103,96,157,179,288,77,221,50,43,184,302,57,134,263,228,146,182,12,2,274]",-8,16,1,0,0,0,87,86,86,15,1,,,,,,,,,,,,,,,,,,,,,
,,,,,,,,,,,,,,,,,,,,,,,,,,,,,,,,,,,,,,,,,,,5cf80c2ccbe8f10016dba137,5fb5d95ea1b9851d799bf75a,2020-11-18_20h34.49.712,Colour_Similarity_Experiment,2020.1.2,Linux x86_64,60,5fb5945709dec70f2d595766,,,,,,,,,,,,,,,,,,,,FF,,,,,,,,7,1.15358,,,,,,,,,,,,,,,,,,,,,,,,,,,,9,62,116,1,0,0,response1disk,5,-23,17,1,0,0,rectangle,-23,17,1,0,0,7,6,"[103,96,157,179,288,77,221,50,43,184,302,57,134,263,228,146,182,12,2,274]",-23,17,1,0,0,0,88,87,87,128,1,,,,,,,,,,,,,,,,,,,,,
,,,,,,,,,,,,,,,,,,,,,,,,,,,,,,,,,,,,,,,,,,,5cf80c2ccbe8f10016dba137,5fb5d95ea1b9851d799bf75a,2020-11-18_20h34.49.712,Colour_Similarity_Experiment,2020.1.2,Linux x86_64,60,5fb5945709dec70f2d595766,,,,,,,,,,,,,,,,,,,,FF,,,,,,,,5,1.66393,,,,,,,,,,,,,,,,,,,,,,,,,,,,7,126,-43,1,0,0,response3disk,6,17,5,1,0,0,rectangle,17,5,1,0,0,7,5,"[103,96,157,179,288,77,221,50,43,184,302,57,134,263,228,146,182,12,2,274]",17,5,1,0,0,0,89,88,88,31,1,,,,,,,,,,,,,,,,,,,,,
,,,,,,,,,,,,,,,,,,,,,,,,,,,,,,,,,,,,,,,,,,,5cf80c2ccbe8f10016dba137,5fb5d95ea1b9851d799bf75a,2020-11-18_20h34.49.712,Colour_Similarity_Experiment,2020.1.2,Linux x86_64,60,5fb5945709dec70f2d595766,,,,,,,,,,,,,,,,,,,,PF,,,,,,,,7,2.024735,,,,,,,,,,,,,,,,,,,,,,,,,,,,9,47,85,1,0,0,response1disk,7,23,-10,1,0,0,rectangle,23,-10,1,0,0,7,7,"[103,96,157,179,288,77,221,50,43,184,302,57,134,263,228,146,182,12,2,274]",23,-10,1,0,0,0,90,89,89,121,1,,,,,,,,,,,,,,,,,,,,,
,,,,,,,,,,,,,,,,,,,,,,,,,,,,,,,,,,,,,,,,,,,5cf80c2ccbe8f10016dba137,5fb5d95ea1b9851d799bf75a,2020-11-18_20h34.49.712,Colour_Similarity_Experiment,2020.1.2,Linux x86_64,60,5fb5945709dec70f2d595766,,,,,,,,,,,,,,,,,,,,FF,,,,,,,,7,0.773855,,,,,,,,,,,,,,,,,,,,,,,,,,,,1,65,99,1,0,0,response1disk,5,4,-6,1,0,0,rectangle,4,-6,1,0,0,7,5,"[103,96,157,179,288,77,221,50,43,184,302,57,134,263,228,146,182,12,2,274]",4,-6,1,0,0,0,91,90,90,82,1,,,,,,,,,,,,,,,,,,,,,
,,,,,,,,,,,,,,,,,,,,,,,,,,,,,,,,,,,,,,,,,,,5cf80c2ccbe8f10016dba137,5fb5d95ea1b9851d799bf75a,2020-11-18_20h34.49.712,Colour_Similarity_Experiment,2020.1.2,Linux x86_64,60,5fb5945709dec70f2d595766,,,,,,,,,,,,,,,,,,,,PF,,,,,,,,7,0.720345,,,,,,,,,,,,,,,,,,,,,,,,,,,,7,78,96,1,0,0,response1disk,9,21,-6,1,0,0,rectangle,21,-6,1,0,0,7,0,"[103,96,157,179,288,77,221,50,43,184,302,57,134,263,228,146,182,12,2,274]",21,-6,1,0,0,0,92,91,91,10,1,,,,,,,,,,,,,,,,,,,,,
,,,,,,,,,,,,,,,,,,,,,,,,,,,,,,,,,,,,,,,,,,,5cf80c2ccbe8f10016dba137,5fb5d95ea1b9851d799bf75a,2020-11-18_20h34.49.712,Colour_Similarity_Experiment,2020.1.2,Linux x86_64,60,5fb5945709dec70f2d595766,,,,,,,,,,,,,,,,,,,,PF,,,,,,,,6,1.57456,,,,,,,,,,,,,,,,,,,,,,,,,,,,2,90,43,1,0,0,response1disk,3,-26,-18,1,0,0,rectangle,-26,-18,1,0,0,7,0,"[103,96,157,179,288,77,221,50,43,184,302,57,134,263,228,146,182,12,2,274]",-26,-18,1,0,0,0,93,92,92,69,1,,,,,,,,,,,,,,,,,,,,,
,,,,,,,,,,,,,,,,,,,,,,,,,,,,,,,,,,,,,,,,,,,5cf80c2ccbe8f10016dba137,5fb5d95ea1b9851d799bf75a,2020-11-18_20h34.49.712,Colour_Similarity_Experiment,2020.1.2,Linux x86_64,60,5fb5945709dec70f2d595766,,,,,,,,,,,,,,,,,,,,PF,,,,,,,,5,1.107255,,,,,,,,,,,,,,,,,,,,,,,,,,,,5,85,-48,1,0,0,response3disk,7,8,10,1,0,0,rectangle,8,10,1,0,0,7,2,"[103,96,157,179,288,77,221,50,43,184,302,57,134,263,228,146,182,12,2,274]",8,10,1,0,0,0,94,93,93,146,1,,,,,,,,,,,,,,,,,,,,,
,,,,,,,,,,,,,,,,,,,,,,,,,,,,,,,,,,,,,,,,,,,5cf80c2ccbe8f10016dba137,5fb5d95ea1b9851d799bf75a,2020-11-18_20h34.49.712,Colour_Similarity_Experiment,2020.1.2,Linux x86_64,60,5fb5945709dec70f2d595766,,,,,,,,,,,,,,,,,,,,FF,,,,,,,,7,0.625915,,,,,,,,,,,,,,,,,,,,,,,,,,,,8,58,100,1,0,0,response1disk,1,26,9,1,0,0,rectangle,26,9,1,0,0,7,1,"[103,96,157,179,288,77,221,50,43,184,302,57,134,263,228,146,182,12,2,274]",26,9,1,0,0,0,95,94,94,20,1,,,,,,,,,,,,,,,,,,,,,
,,,,,,,,,,,,,,,,,,,,,,,,,,,,,,,,,,,,,,,,,,,5cf80c2ccbe8f10016dba137,5fb5d95ea1b9851d799bf75a,2020-11-18_20h34.49.712,Colour_Similarity_Experiment,2020.1.2,Linux x86_64,60,5fb5945709dec70f2d595766,,,,,,,,,,,,,,,,,,,,PF,,,,,,,,7,0.719795,,,,,,,,,,,,,,,,,,,,,,,,,,,,5,63,94,1,0,0,response1disk,8,8,0,1,0,0,rectangle,44,-108,1,0,0,4,4,"[103,96,157,179,288,77,221,50,43,184,302,57,134,263,228,146,182,12,2,274]",-7,4,1,0,0,0,96,95,95,149,1,response3disk_3,rectangle,,,,,,,,,,,,,,,,,,,
,,,,,,,,,,,,,,,,,,,,,,,,,,,,,,,,,,,,,,,,,,,5cf80c2ccbe8f10016dba137,5fb5d95ea1b9851d799bf75a,2020-11-18_20h34.49.712,Colour_Similarity_Experiment,2020.1.2,Linux x86_64,60,5fb5945709dec70f2d595766,,,,,,,,,,,,,,,,,,,,FF,,,,,,,,6,1.22698,,,,,,,,,,,,,,,,,,,,,,,,,,,,6,134,60,1,0,0,response1disk,4,36,1,1,0,0,rectangle,36,1,1,0,0,4,4,"[103,96,157,179,288,77,221,50,43,184,302,57,134,263,228,146,182,12,2,274]",36,1,1,0,0,0,97,96,96,56,1,,,,,,,,,,,,,,,,,,,,,
,,,,,,,,,,,,,,,,,,,,,,,,,,,,,,,,,,,,,,,,,,,5cf80c2ccbe8f10016dba137,5fb5d95ea1b9851d799bf75a,2020-11-18_20h34.49.712,Colour_Similarity_Experiment,2020.1.2,Linux x86_64,60,5fb5945709dec70f2d595766,,,,,,,,,,,,,,,,,,,,FF,,,,,,,,6,1.06689,,,,,,,,,,,,,,,,,,,,,,,,,,,,8,96,50,1,0,0,response1disk,6,2,19,1,0,0,rectangle,2,19,1,0,0,4,6,"[103,96,157,179,288,77,221,50,43,184,302,57,134,263,228,146,182,12,2,274]",2,19,1,0,0,0,98,97,97,37,1,,,,,,,,,,,,,,,,,,,,,
,,,,,,,,,,,,,,,,,,,,,,,,,,,,,,,,,,,,,,,,,,,5cf80c2ccbe8f10016dba137,5fb5d95ea1b9851d799bf75a,2020-11-18_20h34.49.712,Colour_Similarity_Experiment,2020.1.2,Linux x86_64,60,5fb5945709dec70f2d595766,,,,,,,,,,,,,,,,,,,,PF,,,,,,,,7,1.04017,,,,,,,,,,,,,,,,,,,,,,,,,,,,5,49,85,1,0,0,response1disk,1,30,0,1,0,0,rectangle,30,0,1,0,0,4,1,"[103,96,157,179,288,77,221,50,43,184,302,57,134,263,228,146,182,12,2,274]",30,0,1,0,0,0,99,98,98,159,1,,,,,,,,,,,,,,,,,,,,,
,,,,,,,,,,,,,,,,,,,,,,,,,,,,,,,,,,,,,,,,,,,5cf80c2ccbe8f10016dba137,5fb5d95ea1b9851d799bf75a,2020-11-18_20h34.49.712,Colour_Similarity_Experiment,2020.1.2,Linux x86_64,60,5fb5945709dec70f2d595766,,,,,,,,,,,,,,,,,,,,PF,,,,,,,,7,0.653365,,,,,,,,,,,,,,,,,,,,,,,,,,,,4,49,100,1,0,0,response1disk,8,11,0,1,0,0,rectangle,11,0,1,0,0,4,5,"[103,96,157,179,288,77,221,50,43,184,302,57,134,263,228,146,182,12,2,274]",11,0,1,0,0,0,100,99,99,124,1,,,,,,,,,,,,,,,,,,,,,
,,,,,,,,,,,,,,,,,,,,,,,,,,,,,,,,,,,,,,,,,,,5cf80c2ccbe8f10016dba137,5fb5d95ea1b9851d799bf75a,2020-11-18_20h34.49.712,Colour_Similarity_Experiment,2020.1.2,Linux x86_64,60,5fb5945709dec70f2d595766,,,,,,,,,,,,,,,,,,,,PF,,,,,,,,4,1.853715,,,,,,,,,,,,,,,,,,,,,,,,,,,,7,60,-90,1,0,0,response3disk,6,23,3,1,0,0,rectangle,23,3,1,0,0,4,7,"[103,96,157,179,288,77,221,50,43,184,302,57,134,263,228,146,182,12,2,274]",23,3,1,0,0,0,101,100,100,29,1,,,,,,,,,,,,,,,,,,,,,
,,,,,,,,,,,,,,,,,,,,,,,,,,,,,,,,,,,,,,,,,,,5cf80c2ccbe8f10016dba137,5fb5d95ea1b9851d799bf75a,2020-11-18_20h34.49.712,Colour_Similarity_Experiment,2020.1.2,Linux x86_64,60,5fb5945709dec70f2d595766,,,,,,,,,,,,,,,,,,,,FF,,,,,,,,7,0.78606,,,,,,,,,,,,,,,,,,,,,,,,,,,,9,67,118,1,0,0,response1disk,3,2,7,1,0,0,rectangle,2,7,1,0,0,4,7,"[103,96,157,179,288,77,221,50,43,184,302,57,134,263,228,146,182,12,2,274]",2,7,1,0,0,0,102,101,101,141,1,,,,,,,,,,,,,,,,,,,,,
,,,,,,,,,,,,,,,,,,,,,,,,,,,,,,,,,,,,,,,,,,,5cf80c2ccbe8f10016dba137,5fb5d95ea1b9851d799bf75a,2020-11-18_20h34.49.712,Colour_Similarity_Experiment,2020.1.2,Linux x86_64,60,5fb5945709dec70f2d595766,,,,,,,,,,,,,,,,,,,,PF,,,,,,,,7,0.760655,,,,,,,,,,,,,,,,,,,,,,,,,,,,1,72,94,1,0,0,response1disk,5,5,-10,1,0,0,rectangle,70,122,1,0,0,7,7,"[103,96,157,179,288,77,221,50,43,184,302,57,134,263,228,146,182,12,2,274]",33,14,1,0,0,0,103,102,102,28,1,response1disk_3,rectangle,,,,,,,,,,,,,,,,,,,
,,,,,,,,,,,,,,,,,,,,,,,,,,,,,,,,,,,,,,,,,,,5cf80c2ccbe8f10016dba137,5fb5d95ea1b9851d799bf75a,2020-11-18_20h34.49.712,Colour_Similarity_Experiment,2020.1.2,Linux x86_64,60,5fb5945709dec70f2d595766,,,,,,,,,,,,,,,,,,,,PF,,,,,,,,7,0.76125,,,,,,,,,,,,,,,,,,,,,,,,,,,,8,64,97,1,0,0,response1disk,4,32,8,1,0,0,rectangle,32,8,1,0,0,7,6,"[103,96,157,179,288,77,221,50,43,184,302,57,134,263,228,146,182,12,2,274]",32,8,1,0,0,0,104,103,103,78,1,,,,,,,,,,,,,,,,,,,,,
,,,,,,,,,,,,,,,,,,,,,,,,,,,,,,,,,,,,,,,,,,,5cf80c2ccbe8f10016dba137,5fb5d95ea1b9851d799bf75a,2020-11-18_20h34.49.712,Colour_Similarity_Experiment,2020.1.2,Linux x86_64,60,5fb5945709dec70f2d595766,,,,,,,,,,,,,,,,,,,,PF,,,,,,,,1,1.98744,,,,,,,,,,,,,,,,,,,,,,,,,,,,4,-96,44,1,0,0,response7disk,3,-15,-2,1,0,0,rectangle,-15,-2,1,0,0,7,1,"[103,96,157,179,288,77,221,50,43,184,302,57,134,263,228,146,182,12,2,274]",-15,-2,1,0,0,0,105,104,104,89,1,,,,,,,,,,,,,,,,,,,,,
,,,,,,,,,,,,,,,,,,,,,,,,,,,,,,,,,,,,,,,,,,,5cf80c2ccbe8f10016dba137,5fb5d95ea1b9851d799bf75a,2020-11-18_20h34.49.712,Colour_Similarity_Experiment,2020.1.2,Linux x86_64,60,5fb5945709dec70f2d595766,,,,,,,,,,,,,,,,,,,,FF,,,,,,,,2,1.64094,,,,,,,,,,,,,,,,,,,,,,,,,,,,5,-86,-26,1,0,0,response5disk,4,5,-8,1,0,0,rectangle,5,-8,1,0,0,7,5,"[103,96,157,179,288,77,221,50,43,184,302,57,134,263,228,146,182,12,2,274]",5,-8,1,0,0,0,106,105,105,8,1,,,,,,,,,,,,,,,,,,,,,
,,,,,,,,,,,,,,,,,,,,,,,,,,,,,,,,,,,,,,,,,,,5cf80c2ccbe8f10016dba137,5fb5d95ea1b9851d799bf75a,2020-11-18_20h34.49.712,Colour_Similarity_Experiment,2020.1.2,Linux x86_64,60,5fb5945709dec70f2d595766,,,,,,,,,,,,,,,,,,,,FF,,,,,,,,7,0.98693,,,,,,,,,,,,,,,,,,,,,,,,,,,,3,54,83,1,0,0,response1disk,7,7,-1,1,0,0,rectangle,7,-1,1,0,0,7,1,"[103,96,157,179,288,77,221,50,43,184,302,57,134,263,228,146,182,12,2,274]",7,-1,1,0,0,0,107,106,106,118,1,,,,,,,,,,,,,,,,,,,,,
,,,,,,,,,,,,,,,,,,,,,,,,,,,,,,,,,,,,,,,,,,,5cf80c2ccbe8f10016dba137,5fb5d95ea1b9851d799bf75a,2020-11-18_20h34.49.712,Colour_Similarity_Experiment,2020.1.2,Linux x86_64,60,5fb5945709dec70f2d595766,,,,,,,,,,,,,,,,,,,,FF,,,,,,,,6,2.052865,,,,,,,,,,,,,,,,,,,,,,,,,,,,2,132,43,1,0,0,response1disk,1,11,0,1,0,0,rectangle,11,0,1,0,0,7,1,"[103,96,157,179,288,77,221,50,43,184,302,57,134,263,228,146,182,12,2,274]",11,0,1,0,0,0,108,107,107,85,1,,,,,,,,,,,,,,,,,,,,,
,,,,,,,,,,,,,,,,,,,,,,,,,,,,,,,,,,,,,,,,,,,5cf80c2ccbe8f10016dba137,5fb5d95ea1b9851d799bf75a,2020-11-18_20h34.49.712,Colour_Similarity_Experiment,2020.1.2,Linux x86_64,60,5fb5945709dec70f2d595766,,,,,,,,,,,,,,,,,,,,PF,,,,,,,,7,0.69411,,,,,,,,,,,,,,,,,,,,,,,,,,,,2,64,91,1,0,0,response1disk,6,19,4,1,0,0,rectangle,19,4,1,0,0,7,0,"[103,96,157,179,288,77,221,50,43,184,302,57,134,263,228,146,182,12,2,274]",19,4,1,0,0,0,109,108,108,113,1,,,,,,,,,,,,,,,,,,,,,
,,,,,,,,,,,,,,,,,,,,,,,,,,,,,,,,,,,,,,,,,,,5cf80c2ccbe8f10016dba137,5fb5d95ea1b9851d799bf75a,2020-11-18_20h34.49.712,Colour_Similarity_Experiment,2020.1.2,Linux x86_64,60,5fb5945709dec70f2d595766,,,,,,,,,,,,,,,,,,,,PF,,,,,,,,7,1.38723,,,,,,,,,,,,,,,,,,,,,,,,,,,,3,59,109,1,0,0,response1disk,1,6,3,1,0,0,rectangle,6,3,1,0,0,7,6,"[103,96,157,179,288,77,221,50,43,184,302,57,134,263,228,146,182,12,2,274]",6,3,1,0,0,0,110,109,109,96,1,,,,,,,,,,,,,,,,,,,,,
,,,,,,,,,,,,,,,,,,,,,,,,,,,,,,,,,,,,,,,,,,,5cf80c2ccbe8f10016dba137,5fb5d95ea1b9851d799bf75a,2020-11-18_20h34.49.712,Colour_Similarity_Experiment,2020.1.2,Linux x86_64,60,5fb5945709dec70f2d595766,,,,,,,,,,,,,,,,,,,,FF,,,,,,,,2,1.280685,,,,,,,,,,,,,,,,,,,,,,,,,,,,4,-123,-47,1,0,0,response5disk,5,-1,-4,1,0,0,rectangle,-1,-4,1,0,0,7,5,"[103,96,157,179,288,77,221,50,43,184,302,57,134,263,228,146,182,12,2,274]",-1,-4,1,0,0,0,111,110,110,116,1,,,,,,,,,,,,,,,,,,,,,
,,,,,,,,,,,,,,,,,,,,,,,,,,,,,,,,,,,,,,,,,,,5cf80c2ccbe8f10016dba137,5fb5d95ea1b9851d799bf75a,2020-11-18_20h34.49.712,Colour_Similarity_Experiment,2020.1.2,Linux x86_64,60,5fb5945709dec70f2d595766,,,,,,,,,,,,,,,,,,,,FF,,,,,,,,7,0.866845,,,,,,,,,,,,,,,,,,,,,,,,,,,,9,60,97,1,0,0,response1disk,4,29,-4,1,0,0,rectangle,29,-4,1,0,0,7,2,"[103,96,157,179,288,77,221,50,43,184,302,57,134,263,228,146,182,12,2,274]",29,-4,1,0,0,0,112,111,111,60,1,,,,,,,,,,,,,,,,,,,,,
,,,,,,,,,,,,,,,,,,,,,,,,,,,,,,,,,,,,,,,,,,,5cf80c2ccbe8f10016dba137,5fb5d95ea1b9851d799bf75a,2020-11-18_20h34.49.712,Colour_Similarity_Experiment,2020.1.2,Linux x86_64,60,5fb5945709dec70f2d595766,,,,,,,,,,,,,,,,,,,,PF,,,,,,,,7,1.34858,,,,,,,,,,,,,,,,,,,,,,,,,,,,2,80,109,1,0,0,response1disk,4,34,-1,1,0,0,rectangle,34,-1,1,0,0,7,6,"[103,96,157,179,288,77,221,50,43,184,302,57,134,263,228,146,182,12,2,274]",34,-1,1,0,0,0,113,112,112,127,1,,,,,,,,,,,,,,,,,,,,,
,,,,,,,,,,,,,,,,,,,,,,,,,,,,,,,,,,,,,,,,,,,5cf80c2ccbe8f10016dba137,5fb5d95ea1b9851d799bf75a,2020-11-18_20h34.49.712,Colour_Similarity_Experiment,2020.1.2,Linux x86_64,60,5fb5945709dec70f2d595766,,,,,,,,,,,,,,,,,,,,FF,,,,,,,,7,0.546485,,,,,,,,,,,,,,,,,,,,,,,,,,,,8,62,88,1,0,0,response1disk,4,32,6,1,0,0,rectangle,32,6,1,0,0,7,0,"[103,96,157,179,288,77,221,50,43,184,302,57,134,263,228,146,182,12,2,274]",32,6,1,0,0,0,114,113,113,88,1,,,,,,,,,,,,,,,,,,,,,
,,,,,,,,,,,,,,,,,,,,,,,,,,,,,,,,,,,,,,,,,,,5cf80c2ccbe8f10016dba137,5fb5d95ea1b9851d799bf75a,2020-11-18_20h34.49.712,Colour_Similarity_Experiment,2020.1.2,Linux x86_64,60,5fb5945709dec70f2d595766,,,,,,,,,,,,,,,,,,,,PF,,,,,,,,7,0.57371,,,,,,,,,,,,,,,,,,,,,,,,,,,,3,46,72,1,0,0,response1disk,9,16,8,1,0,0,rectangle,16,8,1,0,0,7,3,"[103,96,157,179,288,77,221,50,43,184,302,57,134,263,228,146,182,12,2,274]",16,8,1,0,0,0,115,114,114,79,1,,,,,,,,,,,,,,,,,,,,,
,,,,,,,,,,,,,,,,,,,,,,,,,,,,,,,,,,,,,,,,,,,5cf80c2ccbe8f10016dba137,5fb5d95ea1b9851d799bf75a,2020-11-18_20h34.49.712,Colour_Similarity_Experiment,2020.1.2,Linux x86_64,60,5fb5945709dec70f2d595766,,,,,,,,,,,,,,,,,,,,FF,,,,,,,,0,0.86637,,,,,,,,,,,,,,,,,,,,,,,,,,,,6,-49,90,1,0,0,response7disk,6,11,-3,1,0,0,rectangle,11,-3,1,0,0,7,1,"[103,96,157,179,288,77,221,50,43,184,302,57,134,263,228,146,182,12,2,274]",11,-3,1,0,0,0,116,115,115,91,1,,,,,,,,,,,,,,,,,,,,,
,,,,,,,,,,,,,,,,,,,,,,,,,,,,,,,,,,,,,,,,,,,5cf80c2ccbe8f10016dba137,5fb5d95ea1b9851d799bf75a,2020-11-18_20h34.49.712,Colour_Similarity_Experiment,2020.1.2,Linux x86_64,60,5fb5945709dec70f2d595766,,,,,,,,,,,,,,,,,,,,FF,,,,,,,,7,0.653915,,,,,,,,,,,,,,,,,,,,,,,,,,,,5,67,87,1,0,0,response1disk,1,26,6,1,0,0,rectangle,26,6,1,0,0,7,7,"[103,96,157,179,288,77,221,50,43,184,302,57,134,263,228,146,182,12,2,274]",26,6,1,0,0,0,117,116,116,131,1,,,,,,,,,,,,,,,,,,,,,
,,,,,,,,,,,,,,,,,,,,,,,,,,,,,,,,,,,,,,,,,,,5cf80c2ccbe8f10016dba137,5fb5d95ea1b9851d799bf75a,2020-11-18_20h34.49.712,Colour_Similarity_Experiment,2020.1.2,Linux x86_64,60,5fb5945709dec70f2d595766,,,,,,,,,,,,,,,,,,,,FF,,,,,,,,0,0.800465,,,,,,,,,,,,,,,,,,,,,,,,,,,,5,-47,100,1,0,0,response7disk,5,-6,9,1,0,0,rectangle,-6,9,1,0,0,7,7,"[103,96,157,179,288,77,221,50,43,184,302,57,134,263,228,146,182,12,2,274]",-6,9,1,0,0,0,118,117,117,19,1,,,,,,,,,,,,,,,,,,,,,
,,,,,,,,,,,,,,,,,,,,,,,,,,,,,,,,,,,,,,,,,,,5cf80c2ccbe8f10016dba137,5fb5d95ea1b9851d799bf75a,2020-11-18_20h34.49.712,Colour_Similarity_Experiment,2020.1.2,Linux x86_64,60,5fb5945709dec70f2d595766,,,,,,,,,,,,,,,,,,,,FF,,,,,,,,7,1.33309,,,,,,,,,,,,,,,,,,,,,,,,,,,,1,43,90,1,0,0,response1disk,8,9,3,1,0,0,rectangle,9,3,1,0,0,7,3,"[103,96,157,179,288,77,221,50,43,184,302,57,134,263,228,146,182,12,2,274]",9,3,1,0,0,0,119,118,118,27,1,,,,,,,,,,,,,,,,,,,,,
,,,,,,,,,,,,,,,,,,,,,,,,,,,,,,,,,,,,,,,,,,,5cf80c2ccbe8f10016dba137,5fb5d95ea1b9851d799bf75a,2020-11-18_20h34.49.712,Colour_Similarity_Experiment,2020.1.2,Linux x86_64,60,5fb5945709dec70f2d595766,,,,,,,,,,,,,,,,,,,,PF,,,,,,,,0,0.68049,,,,,,,,,,,,,,,,,,,,,,,,,,,,4,-35,96,1,0,0,response7disk,4,5,-1,1,0,0,rectangle,5,-1,1,0,0,7,5,"[103,96,157,179,288,77,221,50,43,184,302,57,134,263,228,146,182,12,2,274]",5,-1,1,0,0,0,120,119,119,70,1,,,,,,,,,,,,,,,,,,,,,
,,,,,,,,,,,,,,,,,,,,,,,,,,,,,,,,,,,,,,,,,,,5cf80c2ccbe8f10016dba137,5fb5d95ea1b9851d799bf75a,2020-11-18_20h34.49.712,Colour_Similarity_Experiment,2020.1.2,Linux x86_64,60,5fb5945709dec70f2d595766,,,,,,,,,,,,,,,,,,,,PF,,,,,,,,6,1.334025,,,,,,,,,,,,,,,,,,,,,,,,,,,,9,126,40,1,0,0,response1disk,1,-8,-12,1,0,0,rectangle,-8,-12,1,0,0,7,0,"[103,96,157,179,288,77,221,50,43,184,302,57,134,263,228,146,182,12,2,274]",-8,-12,1,0,0,0,121,120,120,74,1,,,,,,,,,,,,,,,,,,,,,
,,,,,,,,,,,,,,,,,,,,,,,,,,,,,,,,,,,,,,,,,,,5cf80c2ccbe8f10016dba137,5fb5d95ea1b9851d799bf75a,2020-11-18_20h34.49.712,Colour_Similarity_Experiment,2020.1.2,Linux x86_64,60,5fb5945709dec70f2d595766,,,,,,,,,,,,,,,,,,,,FF,,,,,,,,7,1.146565,,,,,,,,,,,,,,,,,,,,,,,,,,,,1,60,85,1,0,0,response1disk,3,16,-9,1,0,0,rectangle,16,-9,1,0,0,7,7,"[103,96,157,179,288,77,221,50,43,184,302,57,134,263,228,146,182,12,2,274]",16,-9,1,0,0,0,122,121,121,99,1,,,,,,,,,,,,,,,,,,,,,
,,,,,,,,,,,,,,,,,,,,,,,,,,,,,,,,,,,,,,,,,,,5cf80c2ccbe8f10016dba137,5fb5d95ea1b9851d799bf75a,2020-11-18_20h34.49.712,Colour_Similarity_Experiment,2020.1.2,Linux x86_64,60,5fb5945709dec70f2d595766,,,,,,,,,,,,,,,,,,,,PF,,,,,,,,2,1.120635,,,,,,,,,,,,,,,,,,,,,,,,,,,,3,-92,-35,1,0,0,response5disk,5,-15,-12,1,0,0,rectangle,-15,-12,1,0,0,7,0,"[103,96,157,179,288,77,221,50,43,184,302,57,134,263,228,146,182,12,2,274]",-15,-12,1,0,0,0,123,122,122,66,1,,,,,,,,,,,,,,,,,,,,,
,,,,,,,,,,,,,,,,,,,,,,,,,,,,,,,,,,,,,,,,,,,5cf80c2ccbe8f10016dba137,5fb5d95ea1b9851d799bf75a,2020-11-18_20h34.49.712,Colour_Similarity_Experiment,2020.1.2,Linux x86_64,60,5fb5945709dec70f2d595766,,,,,,,,,,,,,,,,,,,,PF,,,,,,,,7,0.773915,,,,,,,,,,,,,,,,,,,,,,,,,,,,1,55,91,1,0,0,response1disk,7,19,3,1,0,0,rectangle,19,3,1,0,0,7,4,"[103,96,157,179,288,77,221,50,43,184,302,57,134,263,228,146,182,12,2,274]",19,3,1,0,0,0,124,123,123,150,1,,,,,,,,,,,,,,,,,,,,,
,,,,,,,,,,,,,,,,,,,,,,,,,,,,,,,,,,,,,,,,,,,5cf80c2ccbe8f10016dba137,5fb5d95ea1b9851d799bf75a,2020-11-18_20h34.49.712,Colour_Similarity_Experiment,2020.1.2,Linux x86_64,60,5fb5945709dec70f2d595766,,,,,,,,,,,,,,,,,,,,FF,,,,,,,,7,1.253275,,,,,,,,,,,,,,,,,,,,,,,,,,,,6,53,89,1,0,0,response1disk,3,9,1,1,0,0,rectangle,9,1,1,0,0,7,3,"[103,96,157,179,288,77,221,50,43,184,302,57,134,263,228,146,182,12,2,274]",9,1,1,0,0,0,125,124,124,21,1,,,,,,,,,,,,,,,,,,,,,
,,,,,,,,,,,,,,,,,,,,,,,,,,,,,,,,,,,,,,,,,,,5cf80c2ccbe8f10016dba137,5fb5d95ea1b9851d799bf75a,2020-11-18_20h34.49.712,Colour_Similarity_Experiment,2020.1.2,Linux x86_64,60,5fb5945709dec70f2d595766,,,,,,,,,,,,,,,,,,,,FF,,,,,,,,7,0.66705,,,,,,,,,,,,,,,,,,,,,,,,,,,,7,88,92,1,0,0,response1disk,2,-3,10,1,0,0,rectangle,-3,10,1,0,0,7,0,"[103,96,157,179,288,77,221,50,43,184,302,57,134,263,228,146,182,12,2,274]",-3,10,1,0,0,0,126,125,125,138,1,,,,,,,,,,,,,,,,,,,,,
,,,,,,,,,,,,,,,,,,,,,,,,,,,,,,,,,,,,,,,,,,,5cf80c2ccbe8f10016dba137,5fb5d95ea1b9851d799bf75a,2020-11-18_20h34.49.712,Colour_Similarity_Experiment,2020.1.2,Linux x86_64,60,5fb5945709dec70f2d595766,,,,,,,,,,,,,,,,,,,,FF,,,,,,,,0,0.68043,,,,,,,,,,,,,,,,,,,,,,,,,,,,2,-23,80,1,0,0,response7disk,2,-2,15,1,0,0,rectangle,-2,15,1,0,0,7,6,"[103,96,157,179,288,77,221,50,43,184,302,57,134,263,228,146,182,12,2,274]",-2,15,1,0,0,0,127,126,126,142,1,,,,,,,,,,,,,,,,,,,,,
,,,,,,,,,,,,,,,,,,,,,,,,,,,,,,,,,,,,,,,,,,,5cf80c2ccbe8f10016dba137,5fb5d95ea1b9851d799bf75a,2020-11-18_20h34.49.712,Colour_Similarity_Experiment,2020.1.2,Linux x86_64,60,5fb5945709dec70f2d595766,,,,,,,,,,,,,,,,,,,,PF,,,,,,,,1,1.18728,,,,,,,,,,,,,,,,,,,,,,,,,,,,6,-116,32,1,0,0,response7disk,6,-17,7,1,0,0,rectangle,-17,7,1,0,0,7,6,"[103,96,157,179,288,77,221,50,43,184,302,57,134,263,228,146,182,12,2,274]",-17,7,1,0,0,0,128,127,127,0,1,,,,,,,,,,,,,,,,,,,,,
,,,,,,,,,,,,,,,,,,,,,,,,,,,,,,,,,,,,,,,,,,,5cf80c2ccbe8f10016dba137,5fb5d95ea1b9851d799bf75a,2020-11-18_20h34.49.712,Colour_Similarity_Experiment,2020.1.2,Linux x86_64,60,5fb5945709dec70f2d595766,,,,,,,,,,,,,,,,,,,,PF,,,,,,,,7,0.97462,,,,,,,,,,,,,,,,,,,,,,,,,,,,1,72,110,1,0,0,response1disk,6,23,16,1,0,0,rectangle,23,16,1,0,0,7,1,"[103,96,157,179,288,77,221,50,43,184,302,57,134,263,228,146,182,12,2,274]",23,16,1,0,0,0,129,128,128,144,1,,,,,,,,,,,,,,,,,,,,,
,,,,,,,,,,,,,,,,,,,,,,,,,,,,,,,,,,,,,,,,,,,5cf80c2ccbe8f10016dba137,5fb5d95ea1b9851d799bf75a,2020-11-18_20h34.49.712,Colour_Similarity_Experiment,2020.1.2,Linux x86_64,60,5fb5945709dec70f2d595766,,,,,,,,,,,,,,,,,,,,PF,,,,,,,,7,1.44061,,,,,,,,,,,,,,,,,,,,,,,,,,,,4,82,106,1,0,0,response1disk,7,3,1,1,0,0,rectangle,3,1,1,0,0,7,3,"[103,96,157,179,288,77,221,50,43,184,302,57,134,263,228,146,182,12,2,274]",3,1,1,0,0,0,130,129,129,38,1,,,,,,,,,,,,,,,,,,,,,
,,,,,,,,,,,,,,,,,,,,,,,,,,,,,,,,,,,,,,,,,,,5cf80c2ccbe8f10016dba137,5fb5d95ea1b9851d799bf75a,2020-11-18_20h34.49.712,Colour_Similarity_Experiment,2020.1.2,Linux x86_64,60,5fb5945709dec70f2d595766,,,,,,,,,,,,,,,,,,,,PF,,,,,,,,1,1.067415,,,,,,,,,,,,,,,,,,,,,,,,,,,,2,-61,34,1,0,0,response7disk,2,1,7,1,0,0,rectangle,1,7,1,0,0,7,0,"[103,96,157,179,288,77,221,50,43,184,302,57,134,263,228,146,182,12,2,274]",1,7,1,0,0,0,131,130,130,14,1,,,,,,,,,,,,,,,,,,,,,
,,,,,,,,,,,,,,,,,,,,,,,,,,,,,,,,,,,,,,,,,,,5cf80c2ccbe8f10016dba137,5fb5d95ea1b9851d799bf75a,2020-11-18_20h34.49.712,Colour_Similarity_Experiment,2020.1.2,Linux x86_64,60,5fb5945709dec70f2d595766,,,,,,,,,,,,,,,,,,,,PF,,,,,,,,1,0.893145,,,,,,,,,,,,,,,,,,,,,,,,,,,,4,-72,34,1,0,0,response7disk,5,9,5,1,0,0,rectangle,9,5,1,0,0,7,1,"[103,96,157,179,288,77,221,50,43,184,302,57,134,263,228,146,182,12,2,274]",9,5,1,0,0,0,132,131,131,49,1,,,,,,,,,,,,,,,,,,,,,
,,,,,,,,,,,,,,,,,,,,,,,,,,,,,,,,,,,,,,,,,,,5cf80c2ccbe8f10016dba137,5fb5d95ea1b9851d799bf75a,2020-11-18_20h34.49.712,Colour_Similarity_Experiment,2020.1.2,Linux x86_64,60,5fb5945709dec70f2d595766,,,,,,,,,,,,,,,,,,,,PF,,,,,,,,7,0.681885,,,,,,,,,,,,,,,,,,,,,,,,,,,,2,65,81,1,0,0,response1disk,9,6,14,1,0,0,rectangle,6,14,1,0,0,7,5,"[103,96,157,179,288,77,221,50,43,184,302,57,134,263,228,146,182,12,2,274]",6,14,1,0,0,0,133,132,132,39,1,,,,,,,,,,,,,,,,,,,,,
,,,,,,,,,,,,,,,,,,,,,,,,,,,,,,,,,,,,,,,,,,,5cf80c2ccbe8f10016dba137,5fb5d95ea1b9851d799bf75a,2020-11-18_20h34.49.712,Colour_Similarity_Experiment,2020.1.2,Linux x86_64,60,5fb5945709dec70f2d595766,,,,,,,,,,,,,,,,,,,,PF,,,,,,,,7,0.86722,,,,,,,,,,,,,,,,,,,,,,,,,,,,7,66,95,1,0,0,response1disk,4,-23,-2,1,0,0,rectangle,139,-55,1,0,0,5,5,"[103,96,157,179,288,77,221,50,43,184,302,57,134,263,228,146,182,12,2,274]",23,-2,1,0,0,0,134,133,133,43,1,response3disk_3,rectangle,,,,,,,,,,,,,,,,,,,
,,,,,,,,,,,,,,,,,,,,,,,,,,,,,,,,,,,,,,,,,,,5cf80c2ccbe8f10016dba137,5fb5d95ea1b9851d799bf75a,2020-11-18_20h34.49.712,Colour_Similarity_Experiment,2020.1.2,Linux x86_64,60,5fb5945709dec70f2d595766,,,,,,,,,,,,,,,,,,,,FF,,,,,,,,7,0.98744,,,,,,,,,,,,,,,,,,,,,,,,,,,,6,62,103,1,0,0,response1disk,8,21,-8,1,0,0,rectangle,21,-8,1,0,0,5,5,"[103,96,157,179,288,77,221,50,43,184,302,57,134,263,228,146,182,12,2,274]",21,-8,1,0,0,0,135,134,134,133,1,,,,,,,,,,,,,,,,,,,,,
,,,,,,,,,,,,,,,,,,,,,,,,,,,,,,,,,,,,,,,,,,,5cf80c2ccbe8f10016dba137,5fb5d95ea1b9851d799bf75a,2020-11-18_20h34.49.712,Colour_Similarity_Experiment,2020.1.2,Linux x86_64,60,5fb5945709dec70f2d595766,,,,,,,,,,,,,,,,,,,,PF,,,,,,,,7,0.720495,,,,,,,,,,,,,,,,,,,,,,,,,,,,9,68,100,1,0,0,response1disk,6,21,-7,1,0,0,rectangle,21,-7,1,0,0,5,5,"[103,96,157,179,288,77,221,50,43,184,302,57,134,263,228,146,182,12,2,274]",21,-7,1,0,0,0,136,135,135,148,1,,,,,,,,,,,,,,,,,,,,,
,,,,,,,,,,,,,,,,,,,,,,,,,,,,,,,,,,,,,,,,,,,5cf80c2ccbe8f10016dba137,5fb5d95ea1b9851d799bf75a,2020-11-18_20h34.49.712,Colour_Similarity_Experiment,2020.1.2,Linux x86_64,60,5fb5945709dec70f2d595766,,,,,,,,,,,,,,,,,,,,PF,,,,,,,,4,2.46807,,,,,,,,,,,,,,,,,,,,,,,,,,,,6,62,-104,1,0,0,response3disk,5,1,-18,1,0,0,rectangle,1,-18,1,0,0,5,2,"[103,96,157,179,288,77,221,50,43,184,302,57,134,263,228,146,182,12,2,274]",1,-18,1,0,0,0,137,136,136,59,1,,,,,,,,,,,,,,,,,,,,,
,,,,,,,,,,,,,,,,,,,,,,,,,,,,,,,,,,,,,,,,,,,5cf80c2ccbe8f10016dba137,5fb5d95ea1b9851d799bf75a,2020-11-18_20h34.49.712,Colour_Similarity_Experiment,2020.1.2,Linux x86_64,60,5fb5945709dec70f2d595766,,,,,,,,,,,,,,,,,,,,FF,,,,,,,,1,1.920435,,,,,,,,,,,,,,,,,,,,,,,,,,,,9,-78,54,1,0,0,response7disk,9,-8,3,1,0,0,rectangle,-8,3,1,0,0,5,2,"[103,96,157,179,288,77,221,50,43,184,302,57,134,263,228,146,182,12,2,274]",-8,3,1,0,0,0,138,137,137,17,1,,,,,,,,,,,,,,,,,,,,,
,,,,,,,,,,,,,,,,,,,,,,,,,,,,,,,,,,,,,,,,,,,5cf80c2ccbe8f10016dba137,5fb5d95ea1b9851d799bf75a,2020-11-18_20h34.49.712,Colour_Similarity_Experiment,2020.1.2,Linux x86_64,60,5fb5945709dec70f2d595766,,,,,,,,,,,,,,,,,,,,PF,,,,,,,,1,1.25361,,,,,,,,,,,,,,,,,,,,,,,,,,,,3,-100,38,1,0,0,response7disk,4,3,2,1,0,0,rectangle,3,2,1,0,0,5,1,"[103,96,157,179,288,77,221,50,43,184,302,57,134,263,228,146,182,12,2,274]",3,2,1,0,0,0,139,138,138,30,1,,,,,,,,,,,,,,,,,,,,,
,,,,,,,,,,,,,,,,,,,,,,,,,,,,,,,,,,,,,,,,,,,5cf80c2ccbe8f10016dba137,5fb5d95ea1b9851d799bf75a,2020-11-18_20h34.49.712,Colour_Similarity_Experiment,2020.1.2,Linux x86_64,60,5fb5945709dec70f2d595766,,,,,,,,,,,,,,,,,,,,FF,,,,,,,,6,3.34766,,,,,,,,,,,,,,,,,,,,,,,,,,,,3,103,32,1,0,0,response1disk,8,-6,3,1,0,0,rectangle,-6,3,1,0,0,5,5,"[103,96,157,179,288,77,221,50,43,184,302,57,134,263,228,146,182,12,2,274]",-6,3,1,0,0,0,140,139,139,44,1,,,,,,,,,,,,,,,,,,,,,
,,,,,,,,,,,,,,,,,,,,,,,,,,,,,,,,,,,,,,,,,,,5cf80c2ccbe8f10016dba137,5fb5d95ea1b9851d799bf75a,2020-11-18_20h34.49.712,Colour_Similarity_Experiment,2020.1.2,Linux x86_64,60,5fb5945709dec70f2d595766,,,,,,,,,,,,,,,,,,,,PF,,,,,,,,6,1.400805,,,,,,,,,,,,,,,,,,,,,,,,,,,,3,106,52,1,0,0,response1disk,2,4,6,1,0,0,rectangle,4,6,1,0,0,5,5,"[103,96,157,179,288,77,221,50,43,184,302,57,134,263,228,146,182,12,2,274]",4,6,1,0,0,0,141,140,140,36,1,,,,,,,,,,,,,,,,,,,,,
,,,,,,,,,,,,,,,,,,,,,,,,,,,,,,,,,,,,,,,,,,,5cf80c2ccbe8f10016dba137,5fb5d95ea1b9851d799bf75a,2020-11-18_20h34.49.712,Colour_Similarity_Experiment,2020.1.2,Linux x86_64,60,5fb5945709dec70f2d595766,,,,,,,,,,,,,,,,,,,,FF,,,,,,,,7,0.720305,,,,,,,,,,,,,,,,,,,,,,,,,,,,3,56,93,1,0,0,response1disk,9,18,-12,1,0,0,rectangle,18,-12,1,0,0,5,5,"[103,96,157,179,288,77,221,50,43,184,302,57,134,263,228,146,182,12,2,274]",18,-12,1,0,0,0,142,141,141,143,1,,,,,,,,,,,,,,,,,,,,,
,,,,,,,,,,,,,,,,,,,,,,,,,,,,,,,,,,,,,,,,,,,5cf80c2ccbe8f10016dba137,5fb5d95ea1b9851d799bf75a,2020-11-18_20h34.49.712,Colour_Similarity_Experiment,2020.1.2,Linux x86_64,60,5fb5945709dec70f2d595766,,,,,,,,,,,,,,,,,,,,FF,,,,,,,,7,1.174075,,,,,,,,,,,,,,,,,,,,,,,,,,,,7,34,75,1,0,0,response1disk,9,16,11,1,0,0,rectangle,16,11,1,0,0,5,0,"[103,96,157,179,288,77,221,50,43,184,302,57,134,263,228,146,182,12,2,274]",16,11,1,0,0,0,143,142,142,155,1,,,,,,,,,,,,,,,,,,,,,
,,,,,,,,,,,,,,,,,,,,,,,,,,,,,,,,,,,,,,,,,,,5cf80c2ccbe8f10016dba137,5fb5d95ea1b9851d799bf75a,2020-11-18_20h34.49.712,Colour_Similarity_Experiment,2020.1.2,Linux x86_64,60,5fb5945709dec70f2d595766,,,,,,,,,,,,,,,,,,,,PF,,,,,,,,2,1.321055,,,,,,,,,,,,,,,,,,,,,,,,,,,,5,-41,-26,1,0,0,response5disk,4,-2,-6,1,0,0,rectangle,-2,-6,1,0,0,5,5,"[103,96,157,179,288,77,221,50,43,184,302,57,134,263,228,146,182,12,2,274]",-2,-6,1,0,0,0,144,143,143,54,1,,,,,,,,,,,,,,,,,,,,,
,,,,,,,,,,,,,,,,,,,,,,,,,,,,,,,,,,,,,,,,,,,5cf80c2ccbe8f10016dba137,5fb5d95ea1b9851d799bf75a,2020-11-18_20h34.49.712,Colour_Similarity_Experiment,2020.1.2,Linux x86_64,60,5fb5945709dec70f2d595766,,,,,,,,,,,,,,,,,,,,PF,,,,,,,,7,1.067915,,,,,,,,,,,,,,,,,,,,,,,,,,,,1,40,84,1,0,0,response1disk,8,-3,-10,1,0,0,rectangle,-3,-10,1,0,0,5,1,"[103,96,157,179,288,77,221,50,43,184,302,57,134,263,228,146,182,12,2,274]",-3,-10,1,0,0,0,145,144,144,65,1,,,,,,,,,,,,,,,,,,,,,
,,,,,,,,,,,,,,,,,,,,,,,,,,,,,,,,,,,,,,,,,,,5cf80c2ccbe8f10016dba137,5fb5d95ea1b9851d799bf75a,2020-11-18_20h34.49.712,Colour_Similarity_Experiment,2020.1.2,Linux x86_64,60,5fb5945709dec70f2d595766,,,,,,,,,,,,,,,,,,,,PF,,,,,,,,0,1.000205,,,,,,,,,,,,,,,,,,,,,,,,,,,,9,-51,93,1,0,0,response7disk,9,-11,13,1,0,0,rectangle,-115,57,1,0,0,1,1,"[103,96,157,179,288,77,221,50,43,184,302,57,134,263,228,146,182,12,2,274]",1,-9,1,0,0,0,146,145,145,106,1,response7disk_3,rectangle,,,,,,,,,,,,,,,,,,,
,,,,,,,,,,,,,,,,,,,,,,,,,,,,,,,,,,,,,,,,,,,5cf80c2ccbe8f10016dba137,5fb5d95ea1b9851d799bf75a,2020-11-18_20h34.49.712,Colour_Similarity_Experiment,2020.1.2,Linux x86_64,60,5fb5945709dec70f2d595766,,,,,,,,,,,,,,,,,,,,PF,,,,,,,,7,0.82766,,,,,,,,,,,,,,,,,,,,,,,,,,,,4,23,83,1,0,0,response1disk,9,1,0,1,0,0,rectangle,1,0,1,0,0,1,2,"[103,96,157,179,288,77,221,50,43,184,302,57,134,263,228,146,182,12,2,274]",1,0,1,0,0,0,147,146,146,75,1,,,,,,,,,,,,,,,,,,,,,
,,,,,,,,,,,,,,,,,,,,,,,,,,,,,,,,,,,,,,,,,,,5cf80c2ccbe8f10016dba137,5fb5d95ea1b9851d799bf75a,2020-11-18_20h34.49.712,Colour_Similarity_Experiment,2020.1.2,Linux x86_64,60,5fb5945709dec70f2d595766,,,,,,,,,,,,,,,,,,,,FF,,,,,,,,7,0.86682,,,,,,,,,,,,,,,,,,,,,,,,,,,,2,43,79,1,0,0,response1disk,4,17,5,1,0,0,rectangle,17,5,1,0,0,1,4,"[103,96,157,179,288,77,221,50,43,184,302,57,134,263,228,146,182,12,2,274]",17,5,1,0,0,0,148,147,147,145,1,,,,,,,,,,,,,,,,,,,,,
,,,,,,,,,,,,,,,,,,,,,,,,,,,,,,,,,,,,,,,,,,,5cf80c2ccbe8f10016dba137,5fb5d95ea1b9851d799bf75a,2020-11-18_20h34.49.712,Colour_Similarity_Experiment,2020.1.2,Linux x86_64,60,5fb5945709dec70f2d595766,,,,,,,,,,,,,,,,,,,,PF,,,,,,,,7,1.52089,,,,,,,,,,,,,,,,,,,,,,,,,,,,6,59,90,1,0,0,response1disk,9,16,1,1,0,0,rectangle,16,1,1,0,0,1,3,"[103,96,157,179,288,77,221,50,43,184,302,57,134,263,228,146,182,12,2,274]",16,1,1,0,0,0,149,148,148,45,1,,,,,,,,,,,,,,,,,,,,,
,,,,,,,,,,,,,,,,,,,,,,,,,,,,,,,,,,,,,,,,,,,5cf80c2ccbe8f10016dba137,5fb5d95ea1b9851d799bf75a,2020-11-18_20h34.49.712,Colour_Similarity_Experiment,2020.1.2,Linux x86_64,60,5fb5945709dec70f2d595766,,,,,,,,,,,,,,,,,,,,FF,,,,,,,,0,0.747095,,,,,,,,,,,,,,,,,,,,,,,,,,,,4,-71,94,1,0,0,response7disk,4,-4,3,1,0,0,rectangle,-4,3,1,0,0,1,7,"[103,96,157,179,288,77,221,50,43,184,302,57,134,263,228,146,182,12,2,274]",-4,3,1,0,0,0,150,149,149,84,1,,,,,,,,,,,,,,,,,,,,,
,,,,,,,,,,,,,,,,,,,,,,,,,,,,,,,,,,,,,,,,,,,5cf80c2ccbe8f10016dba137,5fb5d95ea1b9851d799bf75a,2020-11-18_20h34.49.712,Colour_Similarity_Experiment,2020.1.2,Linux x86_64,60,5fb5945709dec70f2d595766,,,,,,,,,,,,,,,,,,,,PF,,,,,,,,2,1.3207,,,,,,,,,,,,,,,,,,,,,,,,,,,,7,-73,-41,1,0,0,response5disk,7,16,-11,1,0,0,rectangle,16,-11,1,0,0,1,3,"[103,96,157,179,288,77,221,50,43,184,302,57,134,263,228,146,182,12,2,274]",16,-11,1,0,0,0,151,150,150,51,1,,,,,,,,,,,,,,,,,,,,,
,,,,,,,,,,,,,,,,,,,,,,,,,,,,,,,,,,,,,,,,,,,5cf80c2ccbe8f10016dba137,5fb5d95ea1b9851d799bf75a,2020-11-18_20h34.49.712,Colour_Similarity_Experiment,2020.1.2,Linux x86_64,60,5fb5945709dec70f2d595766,,,,,,,,,,,,,,,,,,,,FF,,,,,,,,1,1.36076,,,,,,,,,,,,,,,,,,,,,,,,,,,,4,-89,35,1,0,0,response7disk,3,-20,-4,1,0,0,rectangle,-20,-4,1,0,0,1,2,"[103,96,157,179,288,77,221,50,43,184,302,57,134,263,228,146,182,12,2,274]",-20,-4,1,0,0,0,152,151,151,77,1,,,,,,,,,,,,,,,,,,,,,
,,,,,,,,,,,,,,,,,,,,,,,,,,,,,,,,,,,,,,,,,,,5cf80c2ccbe8f10016dba137,5fb5d95ea1b9851d799bf75a,2020-11-18_20h34.49.712,Colour_Similarity_Experiment,2020.1.2,Linux x86_64,60,5fb5945709dec70f2d595766,,,,,,,,,,,,,,,,,,,,FF,,,,,,,,7,0.86621,,,,,,,,,,,,,,,,,,,,,,,,,,,,4,105,130,1,0,0,response1disk,8,12,2,1,0,0,rectangle,12,2,1,0,0,1,6,"[103,96,157,179,288,77,221,50,43,184,302,57,134,263,228,146,182,12,2,274]",12,2,1,0,0,0,153,152,152,35,1,,,,,,,,,,,,,,,,,,,,,
,,,,,,,,,,,,,,,,,,,,,,,,,,,,,,,,,,,,,,,,,,,5cf80c2ccbe8f10016dba137,5fb5d95ea1b9851d799bf75a,2020-11-18_20h34.49.712,Colour_Similarity_Experiment,2020.1.2,Linux x86_64,60,5fb5945709dec70f2d595766,,,,,,,,,,,,,,,,,,,,FF,,,,,,,,6,2.92188,,,,,,,,,,,,,,,,,,,,,,,,,,,,2,66,39,1,0,0,response1disk,5,15,10,1,0,0,rectangle,15,10,1,0,0,1,5,"[103,96,157,179,288,77,221,50,43,184,302,57,134,263,228,146,182,12,2,274]",15,10,1,0,0,0,154,153,153,80,1,,,,,,,,,,,,,,,,,,,,,
,,,,,,,,,,,,,,,,,,,,,,,,,,,,,,,,,,,,,,,,,,,5cf80c2ccbe8f10016dba137,5fb5d95ea1b9851d799bf75a,2020-11-18_20h34.49.712,Colour_Similarity_Experiment,2020.1.2,Linux x86_64,60,5fb5945709dec70f2d595766,,,,,,,,,,,,,,,,,,,,PF,,,,,,,,6,2.60135,,,,,,,,,,,,,,,,,,,,,,,,,,,,7,124,36,1,0,0,response1disk,8,18,7,1,0,0,rectangle,18,7,1,0,0,1,7,"[103,96,157,179,288,77,221,50,43,184,302,57,134,263,228,146,182,12,2,274]",18,7,1,0,0,0,155,154,154,140,1,,,,,,,,,,,,,,,,,,,,,
,,,,,,,,,,,,,,,,,,,,,,,,,,,,,,,,,,,,,,,,,,,5cf80c2ccbe8f10016dba137,5fb5d95ea1b9851d799bf75a,2020-11-18_20h34.49.712,Colour_Similarity_Experiment,2020.1.2,Linux x86_64,60,5fb5945709dec70f2d595766,,,,,,,,,,,,,,,,,,,,FF,,,,,,,,7,0.77371,,,,,,,,,,,,,,,,,,,,,,,,,,,,1,47,88,1,0,0,response1disk,7,23,13,1,0,0,rectangle,23,13,1,0,0,1,6,"[103,96,157,179,288,77,221,50,43,184,302,57,134,263,228,146,182,12,2,274]",23,13,1,0,0,0,156,155,155,137,1,,,,,,,,,,,,,,,,,,,,,
,,,,,,,,,,,,,,,,,,,,,,,,,,,,,,,,,,,,,,,,,,,5cf80c2ccbe8f10016dba137,5fb5d95ea1b9851d799bf75a,2020-11-18_20h34.49.712,Colour_Similarity_Experiment,2020.1.2,Linux x86_64,60,5fb5945709dec70f2d595766,,,,,,,,,,,,,,,,,,,,FF,,,,,,,,7,0.55991,,,,,,,,,,,,,,,,,,,,,,,,,,,,4,66,73,1,0,0,response1disk,7,22,8,1,0,0,rectangle,-120,28,1,0,0,1,1,"[103,96,157,179,288,77,221,50,43,184,302,57,134,263,228,146,182,12,2,274]",-15,8,1,0,0,0,157,156,156,87,1,response7disk_3,rectangle,,,,,,,,,,,,,,,,,,,
,,,,,,,,,,,,,,,,,,,,,,,,,,,,,,,,,,,,,,,,,,,5cf80c2ccbe8f10016dba137,5fb5d95ea1b9851d799bf75a,2020-11-18_20h34.49.712,Colour_Similarity_Experiment,2020.1.2,Linux x86_64,60,5fb5945709dec70f2d595766,,,,,,,,,,,,,,,,,,,,FF,,,,,,,,7,0.814045,,,,,,,,,,,,,,,,,,,,,,,,,,,,6,43,91,1,0,0,response1disk,1,-1,17,1,0,0,rectangle,-1,17,1,0,0,1,3,"[103,96,157,179,288,77,221,50,43,184,302,57,134,263,228,146,182,12,2,274]",-1,17,1,0,0,0,158,157,157,5,1,,,,,,,,,,,,,,,,,,,,,
,,,,,,,,,,,,,,,,,,,,,,,,,,,,,,,,,,,,,,,,,,,5cf80c2ccbe8f10016dba137,5fb5d95ea1b9851d799bf75a,2020-11-18_20h34.49.712,Colour_Similarity_Experiment,2020.1.2,Linux x86_64,60,5fb5945709dec70f2d595766,,,,,,,,,,,,,,,,,,,,FF,,,,,,,,7,1.439915,,,,,,,,,,,,,,,,,,,,,,,,,,,,3,45,91,1,0,0,response1disk,1,6,-6,1,0,0,rectangle,6,-6,1,0,0,1,1,"[103,96,157,179,288,77,221,50,43,184,302,57,134,263,228,146,182,12,2,274]",6,-6,1,0,0,0,159,158,158,125,1,,,,,,,,,,,,,,,,,,,,,
,,,,,,,,,,,,,,,,,,,,,,,,,,,,,,,,,,,,,,,,,,,5cf80c2ccbe8f10016dba137,5fb5d95ea1b9851d799bf75a,2020-11-18_20h34.49.712,Colour_Similarity_Experiment,2020.1.2,Linux x86_64,60,5fb5945709dec70f2d595766,,,,,,,,,,,,,,,,,,,,PF,,,,,,,,5,2.12153,,,,,,,,,,,,,,,,,,,,,,,,,,,,2,114,-64,1,0,0,response3disk,1,-5,-3,1,0,0,rectangle,-5,-3,1,0,0,1,0,"[103,96,157,179,288,77,221,50,43,184,302,57,134,263,228,146,182,12,2,274]",-5,-3,1,0,0,0,160,159,159,9,1,,,,,,,,,,,,,,,,,,,,,
,,,,,,,,,,,,,,,,,,,,,,,,,,,,,,,,,,,,,,,,,,,5cf80c2ccbe8f10016dba137,5fb5d95ea1b9851d799bf75a,2020-11-18_20h34.49.712,Colour_Similarity_Experiment,2020.1.2,Linux x86_64,60,5fb5945709dec70f2d595766,,,,,,,,,,,,,,,,,,,,PF,,,,,,,,7,0.69278,,,,,,,,,,,,,,,,,,,,,,,,,,,,5,56,117,1,0,0,response1disk,9,4,-10,1,0,0,rectangle,4,-10,1,0,0,1,0,"[103,96,157,179,288,77,221,50,43,184,302,57,134,263,228,146,182,12,2,274]",4,-10,1,0,0,0,161,160,160,136,1,,,,,,,,,,,,,,,,,,,,,
,,,,,,,,,,,,,,,,,,,,,,,,,,,,,,,,,,,,,,,,,,,5cf80c2ccbe8f10016dba137,5fb5d95ea1b9851d799bf75a,2020-11-18_20h34.49.712,Colour_Similarity_Experiment,2020.1.2,Linux x86_64,60,5fb5945709dec70f2d595766,,,,,,,,,,,,,,,,,,,,PF,,,,,,,,7,0.72061,,,,,,,,,,,,,,,,,,,,,,,,,,,,8,63,97,1,0,0,response1disk,3,13,3,1,0,0,rectangle,13,3,1,0,0,1,5,"[103,96,157,179,288,77,221,50,43,184,302,57,134,263,228,146,182,12,2,274]",13,3,1,0,0,0,162,161,161,71,1,,,,,,,,,,,,,,,,,,,,,
,,,,,,,,,,,,,,,,,,,,,,,,,,,,,,,,,,,,,,,,,,,5cf80c2ccbe8f10016dba137,5fb5d95ea1b9851d799bf75a,2020-11-18_20h34.49.712,Colour_Similarity_Experiment,2020.1.2,Linux x86_64,60,5fb5945709dec70f2d595766,,,,,,,,,,,,,,,,,,,,,,,,,,,,,,,,,,,,,,,,,,,,,,,,,,,,,,,,,,,,,,,,,,,,,,,,,,,,,,,,,,,,,,,,,,,,0,0,0,0,1,,,,,,,,,,,,,,
,,,,,,,,,,,,,,,,,,,,,,,,,,,,,,,,,,,,,,,,,,,5cf80c2ccbe8f10016dba137,5fb5d95ea1b9851d799bf75a,2020-11-18_20h34.49.712,Colour_Similarity_Experiment,2020.1.2,Linux x86_64,60,5fb5945709dec70f2d595766,,,,,,,,,,,,,,,,,,,,FF,,,,,,,,7,1.401275,,,,,,,,,,,,,,,,,,,,,,,,,,,,9,62,93,1,0,0,response1disk,7,18,-4,1,0,0,rectangle,18,-4,1,0,0,1,0,"[103,96,157,179,288,77,221,50,43,184,302,57,134,263,228,146,182,12,2,274]",18,-4,1,0,0,0,163,0,0,100,1,,,,,,,,,,,,,,,,,,,,,
,,,,,,,,,,,,,,,,,,,,,,,,,,,,,,,,,,,,,,,,,,,5cf80c2ccbe8f10016dba137,5fb5d95ea1b9851d799bf75a,2020-11-18_20h34.49.712,Colour_Similarity_Experiment,2020.1.2,Linux x86_64,60,5fb5945709dec70f2d595766,,,,,,,,,,,,,,,,,,,,FF,,,,,,,,0,0.734485,,,,,,,,,,,,,,,,,,,,,,,,,,,,7,-50,96,1,0,0,response7disk,7,7,-5,1,0,0,rectangle,7,-5,1,0,0,1,6,"[103,96,157,179,288,77,221,50,43,184,302,57,134,263,228,146,182,12,2,274]",7,-5,1,0,0,0,164,1,1,34,1,,,,,,,,,,,,,,,,,,,,,
,,,,,,,,,,,,,,,,,,,,,,,,,,,,,,,,,,,,,,,,,,,5cf80c2ccbe8f10016dba137,5fb5d95ea1b9851d799bf75a,2020-11-18_20h34.49.712,Colour_Similarity_Experiment,2020.1.2,Linux x86_64,60,5fb5945709dec70f2d595766,,,,,,,,,,,,,,,,,,,,FF,,,,,,,,7,1.815165,,,,,,,,,,,,,,,,,,,,,,,,,,,,2,22,105,1,0,0,response1disk,6,7,-14,1,0,0,rectangle,7,-14,1,0,0,1,4,"[103,96,157,179,288,77,221,50,43,184,302,57,134,263,228,146,182,12,2,274]",7,-14,1,0,0,0,165,2,2,40,1,,,,,,,,,,,,,,,,,,,,,
,,,,,,,,,,,,,,,,,,,,,,,,,,,,,,,,,,,,,,,,,,,5cf80c2ccbe8f10016dba137,5fb5d95ea1b9851d799bf75a,2020-11-18_20h34.49.712,Colour_Similarity_Experiment,2020.1.2,Linux x86_64,60,5fb5945709dec70f2d595766,,,,,,,,,,,,,,,,,,,,PF,,,,,,,,5,3.040315,,,,,,,,,,,,,,,,,,,,,,,,,,,,1,110,-34,1,0,0,response3disk,2,6,-6,1,0,0,rectangle,6,-6,1,0,0,1,5,"[103,96,157,179,288,77,221,50,43,184,302,57,134,263,228,146,182,12,2,274]",6,-6,1,0,0,0,166,3,3,24,1,,,,,,,,,,,,,,,,,,,,,
,,,,,,,,,,,,,,,,,,,,,,,,,,,,,,,,,,,,,,,,,,,5cf80c2ccbe8f10016dba137,5fb5d95ea1b9851d799bf75a,2020-11-18_20h34.49.712,Colour_Similarity_Experiment,2020.1.2,Linux x86_64,60,5fb5945709dec70f2d595766,,,,,,,,,,,,,,,,,,,,FF,,,,,,,,6,1.49385,,,,,,,,,,,,,,,,,,,,,,,,,,,,8,105,61,1,0,0,response1disk,5,-23,-2,1,0,0,rectangle,-23,-2,1,0,0,1,1,"[103,96,157,179,288,77,221,50,43,184,302,57,134,263,228,146,182,12,2,274]",-23,-2,1,0,0,0,167,4,4,152,1,,,,,,,,,,,,,,,,,,,,,
,,,,,,,,,,,,,,,,,,,,,,,,,,,,,,,,,,,,,,,,,,,5cf80c2ccbe8f10016dba137,5fb5d95ea1b9851d799bf75a,2020-11-18_20h34.49.712,Colour_Similarity_Experiment,2020.1.2,Linux x86_64,60,5fb5945709dec70f2d595766,,,,,,,,,,,,,,,,,,,,FF,,,,,,,,7,0.87966,,,,,,,,,,,,,,,,,,,,,,,,,,,,4,53,99,1,0,0,response1disk,6,-5,2,1,0,0,rectangle,-5,2,1,0,0,1,7,"[103,96,157,179,288,77,221,50,43,184,302,57,134,263,228,146,182,12,2,274]",-5,2,1,0,0,0,168,5,5,122,1,,,,,,,,,,,,,,,,,,,,,
,,,,,,,,,,,,,,,,,,,,,,,,,,,,,,,,,,,,,,,,,,,5cf80c2ccbe8f10016dba137,5fb5d95ea1b9851d799bf75a,2020-11-18_20h34.49.712,Colour_Similarity_Experiment,2020.1.2,Linux x86_64,60,5fb5945709dec70f2d595766,,,,,,,,,,,,,,,,,,,,PF,,,,,,,,7,1.48143,,,,,,,,,,,,,,,,,,,,,,,,,,,,9,65,86,1,0,0,response1disk,5,21,9,1,0,0,rectangle,21,9,1,0,0,1,2,"[103,96,157,179,288,77,221,50,43,184,302,57,134,263,228,146,182,12,2,274]",21,9,1,0,0,0,169,6,6,134,1,,,,,,,,,,,,,,,,,,,,,
,,,,,,,,,,,,,,,,,,,,,,,,,,,,,,,,,,,,,,,,,,,5cf80c2ccbe8f10016dba137,5fb5d95ea1b9851d799bf75a,2020-11-18_20h34.49.712,Colour_Similarity_Experiment,2020.1.2,Linux x86_64,60,5fb5945709dec70f2d595766,,,,,,,,,,,,,,,,,,,,PF,,,,,,,,6,1.01306,,,,,,,,,,,,,,,,,,,,,,,,,,,,8,99,57,1,0,0,response1disk,6,-13,-5,1,0,0,rectangle,-13,-5,1,0,0,1,2,"[103,96,157,179,288,77,221,50,43,184,302,57,134,263,228,146,182,12,2,274]",-13,-5,1,0,0,0,170,7,7,161,1,,,,,,,,,,,,,,,,,,,,,
,,,,,,,,,,,,,,,,,,,,,,,,,,,,,,,,,,,,,,,,,,,5cf80c2ccbe8f10016dba137,5fb5d95ea1b9851d799bf75a,2020-11-18_20h34.49.712,Colour_Similarity_Experiment,2020.1.2,Linux x86_64,60,5fb5945709dec70f2d595766,,,,,,,,,,,,,,,,,,,,PF,,,,,,,,7,0.69364,,,,,,,,,,,,,,,,,,,,,,,,,,,,6,62,83,1,0,0,response1disk,3,4,-2,1,0,0,rectangle,4,-2,1,0,0,1,2,"[103,96,157,179,288,77,221,50,43,184,302,57,134,263,228,146,182,12,2,274]",4,-2,1,0,0,0,171,8,8,26,1,,,,,,,,,,,,,,,,,,,,,
,,,,,,,,,,,,,,,,,,,,,,,,,,,,,,,,,,,,,,,,,,,5cf80c2ccbe8f10016dba137,5fb5d95ea1b9851d799bf75a,2020-11-18_20h34.49.712,Colour_Similarity_Experiment,2020.1.2,Linux x86_64,60,5fb5945709dec70f2d595766,,,,,,,,,,,,,,,,,,,,FF,,,,,,,,7,0.639595,,,,,,,,,,,,,,,,,,,,,,,,,,,,3,55,87,1,0,0,response1disk,6,20,13,1,0,0,rectangle,20,13,1,0,0,1,0,"[103,96,157,179,288,77,221,50,43,184,302,57,134,263,228,146,182,12,2,274]",20,13,1,0,0,0,172,9,9,95,1,,,,,,,,,,,,,,,,,,,,,
,,,,,,,,,,,,,,,,,,,,,,,,,,,,,,,,,,,,,,,,,,,5cf80c2ccbe8f10016dba137,5fb5d95ea1b9851d799bf75a,2020-11-18_20h34.49.712,Colour_Similarity_Experiment,2020.1.2,Linux x86_64,60,5fb5945709dec70f2d595766,,,,,,,,,,,,,,,,,,,,FF,,,,,,,,6,1.38842,,,,,,,,,,,,,,,,,,,,,,,,,,,,1,136,40,1,0,0,response1disk,2,5,-10,1,0,0,rectangle,5,-10,1,0,0,1,4,"[103,96,157,179,288,77,221,50,43,184,302,57,134,263,228,146,182,12,2,274]",5,-10,1,0,0,0,173,10,10,2,1,,,,,,,,,,,,,,,,,,,,,
,,,,,,,,,,,,,,,,,,,,,,,,,,,,,,,,,,,,,,,,,,,5cf80c2ccbe8f10016dba137,5fb5d95ea1b9851d799bf75a,2020-11-18_20h34.49.712,Colour_Similarity_Experiment,2020.1.2,Linux x86_64,60,5fb5945709dec70f2d595766,,,,,,,,,,,,,,,,,,,,FF,,,,,,,,7,1.173745,,,,,,,,,,,,,,,,,,,,,,,,,,,,4,49,101,1,0,0,response1disk,2,17,-2,1,0,0,rectangle,17,-2,1,0,0,1,6,"[103,96,157,179,288,77,221,50,43,184,302,57,134,263,228,146,182,12,2,274]",17,-2,1,0,0,0,174,11,11,13,1,,,,,,,,,,,,,,,,,,,,,
,,,,,,,,,,,,,,,,,,,,,,,,,,,,,,,,,,,,,,,,,,,5cf80c2ccbe8f10016dba137,5fb5d95ea1b9851d799bf75a,2020-11-18_20h34.49.712,Colour_Similarity_Experiment,2020.1.2,Linux x86_64,60,5fb5945709dec70f2d595766,,,,,,,,,,,,,,,,,,,,FF,,,,,,,,3,2.412425,,,,,,,,,,,,,,,,,,,,,,,,,,,,3,-29,-138,1,0,0,response5disk,5,33,-9,1,0,0,rectangle,33,-9,1,0,0,1,0,"[103,96,157,179,288,77,221,50,43,184,302,57,134,263,228,146,182,12,2,274]",33,-9,1,0,0,0,175,12,12,101,1,,,,,,,,,,,,,,,,,,,,,
,,,,,,,,,,,,,,,,,,,,,,,,,,,,,,,,,,,,,,,,,,,5cf80c2ccbe8f10016dba137,5fb5d95ea1b9851d799bf75a,2020-11-18_20h34.49.712,Colour_Similarity_Experiment,2020.1.2,Linux x86_64,60,5fb5945709dec70f2d595766,,,,,,,,,,,,,,,,,,,,FF,,,,,,,,7,1.467235,,,,,,,,,,,,,,,,,,,,,,,,,,,,2,56,109,1,0,0,response1disk,9,18,-5,1,0,0,rectangle,18,-5,1,0,0,1,2,"[103,96,157,179,288,77,221,50,43,184,302,57,134,263,228,146,182,12,2,274]",18,-5,1,0,0,0,176,13,13,72,1,,,,,,,,,,,,,,,,,,,,,
,,,,,,,,,,,,,,,,,,,,,,,,,,,,,,,,,,,,,,,,,,,5cf80c2ccbe8f10016dba137,5fb5d95ea1b9851d799bf75a,2020-11-18_20h34.49.712,Colour_Similarity_Experiment,2020.1.2,Linux x86_64,60,5fb5945709dec70f2d595766,,,,,,,,,,,,,,,,,,,,PF,,,,,,,,6,0.987245,,,,,,,,,,,,,,,,,,,,,,,,,,,,8,100,64,1,0,0,response1disk,7,-30,0,1,0,0,rectangle,-30,0,1,0,0,1,4,"[103,96,157,179,288,77,221,50,43,184,302,57,134,263,228,146,182,12,2,274]",-30,0,1,0,0,0,177,14,14,23,1,,,,,,,,,,,,,,,,,,,,,
,,,,,,,,,,,,,,,,,,,,,,,,,,,,,,,,,,,,,,,,,,,5cf80c2ccbe8f10016dba137,5fb5d95ea1b9851d799bf75a,2020-11-18_20h34.49.712,Colour_Similarity_Experiment,2020.1.2,Linux x86_64,60,5fb5945709dec70f2d595766,,,,,,,,,,,,,,,,,,,,FF,,,,,,,,7,1.386495,,,,,,,,,,,,,,,,,,,,,,,,,,,,4,55,89,1,0,0,response1disk,9,17,10,1,0,0,rectangle,17,10,1,0,0,1,4,"[103,96,157,179,288,77,221,50,43,184,302,57,134,263,228,146,182,12,2,274]",17,10,1,0,0,0,178,15,15,90,1,,,,,,,,,,,,,,,,,,,,,
,,,,,,,,,,,,,,,,,,,,,,,,,,,,,,,,,,,,,,,,,,,5cf80c2ccbe8f10016dba137,5fb5d95ea1b9851d799bf75a,2020-11-18_20h34.49.712,Colour_Similarity_Experiment,2020.1.2,Linux x86_64,60,5fb5945709dec70f2d595766,,,,,,,,,,,,,,,,,,,,FF,,,,,,,,7,0.665945,,,,,,,,,,,,,,,,,,,,,,,,,,,,1,60,95,1,0,0,response1disk,6,4,-7,1,0,0,rectangle,140,66,1,0,0,6,6,"[103,96,157,179,288,77,221,50,43,184,302,57,134,263,228,146,182,12,2,274]",39,-3,1,0,0,0,179,16,16,58,1,response1disk_3,rectangle,,,,,,,,,,,,,,,,,,,
,,,,,,,,,,,,,,,,,,,,,,,,,,,,,,,,,,,,,,,,,,,5cf80c2ccbe8f10016dba137,5fb5d95ea1b9851d799bf75a,2020-11-18_20h34.49.712,Colour_Similarity_Experiment,2020.1.2,Linux x86_64,60,5fb5945709dec70f2d595766,,,,,,,,,,,,,,,,,,,,FF,,,,,,,,7,1.14682,,,,,,,,,,,,,,,,,,,,,,,,,,,,5,45,90,1,0,0,response1disk,2,27,5,1,0,0,rectangle,27,5,1,0,0,6,7,"[103,96,157,179,288,77,221,50,43,184,302,57,134,263,228,146,182,12,2,274]",27,5,1,0,0,0,180,17,17,55,1,,,,,,,,,,,,,,,,,,,,,
,,,,,,,,,,,,,,,,,,,,,,,,,,,,,,,,,,,,,,,,,,,5cf80c2ccbe8f10016dba137,5fb5d95ea1b9851d799bf75a,2020-11-18_20h34.49.712,Colour_Similarity_Experiment,2020.1.2,Linux x86_64,60,5fb5945709dec70f2d595766,,,,,,,,,,,,,,,,,,,,PF,,,,,,,,7,0.62662,,,,,,,,,,,,,,,,,,,,,,,,,,,,5,54,85,1,0,0,response1disk,2,24,-6,1,0,0,rectangle,24,-6,1,0,0,6,7,"[103,96,157,179,288,77,221,50,43,184,302,57,134,263,228,146,182,12,2,274]",24,-6,1,0,0,0,181,18,18,129,1,,,,,,,,,,,,,,,,,,,,,
,,,,,,,,,,,,,,,,,,,,,,,,,,,,,,,,,,,,,,,,,,,5cf80c2ccbe8f10016dba137,5fb5d95ea1b9851d799bf75a,2020-11-18_20h34.49.712,Colour_Similarity_Experiment,2020.1.2,Linux x86_64,60,5fb5945709dec70f2d595766,,,,,,,,,,,,,,,,,,,,FF,,,,,,,,6,0.920425,,,,,,,,,,,,,,,,,,,,,,,,,,,,7,101,62,1,0,0,response1disk,8,21,11,1,0,0,rectangle,-31,100,1,0,0,0,0,"[103,96,157,179,288,77,221,50,43,184,302,57,134,263,228,146,182,12,2,274]",11,-1,1,0,0,0,182,19,19,97,1,response7disk_3,rectangle,,,,,,,,,,,,,,,,,,,
,,,,,,,,,,,,,,,,,,,,,,,,,,,,,,,,,,,,,,,,,,,5cf80c2ccbe8f10016dba137,5fb5d95ea1b9851d799bf75a,2020-11-18_20h34.49.712,Colour_Similarity_Experiment,2020.1.2,Linux x86_64,60,5fb5945709dec70f2d595766,,,,,,,,,,,,,,,,,,,,PF,,,,,,,,6,1.6146,,,,,,,,,,,,,,,,,,,,,,,,,,,,6,118,47,1,0,0,response1disk,4,24,-4,1,0,0,rectangle,24,-4,1,0,0,0,6,"[103,96,157,179,288,77,221,50,43,184,302,57,134,263,228,146,182,12,2,274]",24,-4,1,0,0,0,183,20,20,33,1,,,,,,,,,,,,,,,,,,,,,
,,,,,,,,,,,,,,,,,,,,,,,,,,,,,,,,,,,,,,,,,,,5cf80c2ccbe8f10016dba137,5fb5d95ea1b9851d799bf75a,2020-11-18_20h34.49.712,Colour_Similarity_Experiment,2020.1.2,Linux x86_64,60,5fb5945709dec70f2d595766,,,,,,,,,,,,,,,,,,,,FF,,,,,,,,7,1.186415,,,,,,,,,,,,,,,,,,,,,,,,,,,,7,75,99,1,0,0,response1disk,5,37,0,1,0,0,rectangle,-54,133,1,0,0,0,0,"[103,96,157,179,288,77,221,50,43,184,302,57,134,263,228,146,182,12,2,274]",0,-2,1,0,0,0,184,21,21,156,1,response7disk_3,rectangle,,,,,,,,,,,,,,,,,,,
,,,,,,,,,,,,,,,,,,,,,,,,,,,,,,,,,,,,,,,,,,,5cf80c2ccbe8f10016dba137,5fb5d95ea1b9851d799bf75a,2020-11-18_20h34.49.712,Colour_Similarity_Experiment,2020.1.2,Linux x86_64,60,5fb5945709dec70f2d595766,,,,,,,,,,,,,,,,,,,,FF,,,,,,,,7,1.16054,,,,,,,,,,,,,,,,,,,,,,,,,,,,4,50,88,1,0,0,response1disk,1,15,4,1,0,0,rectangle,15,4,1,0,0,0,5,"[103,96,157,179,288,77,221,50,43,184,302,57,134,263,228,146,182,12,2,274]",15,4,1,0,0,0,185,22,22,102,1,,,,,,,,,,,,,,,,,,,,,
,,,,,,,,,,,,,,,,,,,,,,,,,,,,,,,,,,,,,,,,,,,5cf80c2ccbe8f10016dba137,5fb5d95ea1b9851d799bf75a,2020-11-18_20h34.49.712,Colour_Similarity_Experiment,2020.1.2,Linux x86_64,60,5fb5945709dec70f2d595766,,,,,,,,,,,,,,,,,,,,PF,,,,,,,,7,0.840135,,,,,,,,,,,,,,,,,,,,,,,,,,,,2,46,86,1,0,0,response1disk,5,15,-7,1,0,0,rectangle,15,-7,1,0,0,0,6,"[103,96,157,179,288,77,221,50,43,184,302,57,134,263,228,146,182,12,2,274]",15,-7,1,0,0,0,186,23,23,147,1,,,,,,,,,,,,,,,,,,,,,
,,,,,,,,,,,,,,,,,,,,,,,,,,,,,,,,,,,,,,,,,,,5cf80c2ccbe8f10016dba137,5fb5d95ea1b9851d799bf75a,2020-11-18_20h34.49.712,Colour_Similarity_Experiment,2020.1.2,Linux x86_64,60,5fb5945709dec70f2d595766,,,,,,,,,,,,,,,,,,,,PF,,,,,,,,7,0.89417,,,,,,,,,,,,,,,,,,,,,,,,,,,,7,66,96,1,0,0,response1disk,2,5,4,1,0,0,rectangle,5,4,1,0,0,0,6,"[103,96,157,179,288,77,221,50,43,184,302,57,134,263,228,146,182,12,2,274]",5,4,1,0,0,0,187,24,24,32,1,,,,,,,,,,,,,,,,,,,,,
,,,,,,,,,,,,,,,,,,,,,,,,,,,,,,,,,,,,,,,,,,,5cf80c2ccbe8f10016dba137,5fb5d95ea1b9851d799bf75a,2020-11-18_20h34.49.712,Colour_Similarity_Experiment,2020.1.2,Linux x86_64,60,5fb5945709dec70f2d595766,,,,,,,,,,,,,,,,,,,,PF,,,,,,,,6,1.01448,,,,,,,,,,,,,,,,,,,,,,,,,,,,8,86,46,1,0,0,response1disk,9,15,-3,1,0,0,rectangle,15,-3,1,0,0,0,2,"[103,96,157,179,288,77,221,50,43,184,302,57,134,263,228,146,182,12,2,274]",15,-3,1,0,0,0,188,25,25,42,1,,,,,,,,,,,,,,,,,,,,,
,,,,,,,,,,,,,,,,,,,,,,,,,,,,,,,,,,,,,,,,,,,5cf80c2ccbe8f10016dba137,5fb5d95ea1b9851d799bf75a,2020-11-18_20h34.49.712,Colour_Similarity_Experiment,2020.1.2,Linux x86_64,60,5fb5945709dec70f2d595766,,,,,,,,,,,,,,,,,,,,PF,,,,,,,,6,1.720455,,,,,,,,,,,,,,,,,,,,,,,,,,,,9,117,79,1,0,0,response1disk,2,31,12,1,0,0,rectangle,31,12,1,0,0,0,4,"[103,96,157,179,288,77,221,50,43,184,302,57,134,263,228,146,182,12,2,274]",31,12,1,0,0,0,189,26,26,157,1,,,,,,,,,,,,,,,,,,,,,
,,,,,,,,,,,,,,,,,,,,,,,,,,,,,,,,,,,,,,,,,,,5cf80c2ccbe8f10016dba137,5fb5d95ea1b9851d799bf75a,2020-11-18_20h34.49.712,Colour_Similarity_Experiment,2020.1.2,Linux x86_64,60,5fb5945709dec70f2d595766,,,,,,,,,,,,,,,,,,,,FF,,,,,,,,7,0.97394,,,,,,,,,,,,,,,,,,,,,,,,,,,,6,43,79,1,0,0,response1disk,2,6,6,1,0,0,rectangle,6,6,1,0,0,0,6,"[103,96,157,179,288,77,221,50,43,184,302,57,134,263,228,146,182,12,2,274]",6,6,1,0,0,0,190,27,27,112,1,,,,,,,,,,,,,,,,,,,,,
,,,,,,,,,,,,,,,,,,,,,,,,,,,,,,,,,,,,,,,,,,,5cf80c2ccbe8f10016dba137,5fb5d95ea1b9851d799bf75a,2020-11-18_20h34.49.712,Colour_Similarity_Experiment,2020.1.2,Linux x86_64,60,5fb5945709dec70f2d595766,,,,,,,,,,,,,,,,,,,,FF,,,,,,,,7,1.279385,,,,,,,,,,,,,,,,,,,,,,,,,,,,9,57,87,1,0,0,response1disk,6,24,12,1,0,0,rectangle,24,12,1,0,0,0,2,"[103,96,157,179,288,77,221,50,43,184,302,57,134,263,228,146,182,12,2,274]",24,12,1,0,0,0,191,28,28,117,1,,,,,,,,,,,,,,,,,,,,,
,,,,,,,,,,,,,,,,,,,,,,,,,,,,,,,,,,,,,,,,,,,5cf80c2ccbe8f10016dba137,5fb5d95ea1b9851d799bf75a,2020-11-18_20h34.49.712,Colour_Similarity_Experiment,2020.1.2,Linux x86_64,60,5fb5945709dec70f2d595766,,,,,,,,,,,,,,,,,,,,PF,,,,,,,,7,0.920615,,,,,,,,,,,,,,,,,,,,,,,,,,,,4,45,80,1,0,0,response1disk,2,27,2,1,0,0,rectangle,27,2,1,0,0,0,2,"[103,96,157,179,288,77,221,50,43,184,302,57,134,263,228,146,182,12,2,274]",27,2,1,0,0,0,192,29,29,108,1,,,,,,,,,,,,,,,,,,,,,
,,,,,,,,,,,,,,,,,,,,,,,,,,,,,,,,,,,,,,,,,,,5cf80c2ccbe8f10016dba137,5fb5d95ea1b9851d799bf75a,2020-11-18_20h34.49.712,Colour_Similarity_Experiment,2020.1.2,Linux x86_64,60,5fb5945709dec70f2d595766,,,,,,,,,,,,,,,,,,,,PF,,,,,,,,7,0.920955,,,,,,,,,,,,,,,,,,,,,,,,,,,,7,54,70,1,0,0,response1disk,1,29,4,1,0,0,rectangle,29,4,1,0,0,0,4,"[103,96,157,179,288,77,221,50,43,184,302,57,134,263,228,146,182,12,2,274]",29,4,1,0,0,0,193,30,30,53,1,,,,,,,,,,,,,,,,,,,,,
,,,,,,,,,,,,,,,,,,,,,,,,,,,,,,,,,,,,,,,,,,,5cf80c2ccbe8f10016dba137,5fb5d95ea1b9851d799bf75a,2020-11-18_20h34.49.712,Colour_Similarity_Experiment,2020.1.2,Linux x86_64,60,5fb5945709dec70f2d595766,,,,,,,,,,,,,,,,,,,,PF,,,,,,,,7,0.839975,,,,,,,,,,,,,,,,,,,,,,,,,,,,7,25,61,1,0,0,response1disk,3,3,13,1,0,0,rectangle,3,13,1,0,0,0,3,"[103,96,157,179,288,77,221,50,43,184,302,57,134,263,228,146,182,12,2,274]",3,13,1,0,0,0,194,31,31,81,1,,,,,,,,,,,,,,,,,,,,,
,,,,,,,,,,,,,,,,,,,,,,,,,,,,,,,,,,,,,,,,,,,5cf80c2ccbe8f10016dba137,5fb5d95ea1b9851d799bf75a,2020-11-18_20h34.49.712,Colour_Similarity_Experiment,2020.1.2,Linux x86_64,60,5fb5945709dec70f2d595766,,,,,,,,,,,,,,,,,,,,FF,,,,,,,,6,0.946705,,,,,,,,,,,,,,,,,,,,,,,,,,,,8,115,55,1,0,0,response1disk,9,-4,7,1,0,0,rectangle,-4,7,1,0,0,0,7,"[103,96,157,179,288,77,221,50,43,184,302,57,134,263,228,146,182,12,2,274]",-4,7,1,0,0,0,195,32,32,105,1,,,,,,,,,,,,,,,,,,,,,
,,,,,,,,,,,,,,,,,,,,,,,,,,,,,,,,,,,,,,,,,,,5cf80c2ccbe8f10016dba137,5fb5d95ea1b9851d799bf75a,2020-11-18_20h34.49.712,Colour_Similarity_Experiment,2020.1.2,Linux x86_64,60,5fb5945709dec70f2d595766,,,,,,,,,,,,,,,,,,,,PF,,,,,,,,7,0.93428,,,,,,,,,,,,,,,,,,,,,,,,,,,,9,55,75,1,0,0,response1disk,4,8,8,1,0,0,rectangle,8,8,1,0,0,0,3,"[103,96,157,179,288,77,221,50,43,184,302,57,134,263,228,146,182,12,2,274]",8,8,1,0,0,0,196,33,33,114,1,,,,,,,,,,,,,,,,,,,,,
,,,,,,,,,,,,,,,,,,,,,,,,,,,,,,,,,,,,,,,,,,,5cf80c2ccbe8f10016dba137,5fb5d95ea1b9851d799bf75a,2020-11-18_20h34.49.712,Colour_Similarity_Experiment,2020.1.2,Linux x86_64,60,5fb5945709dec70f2d595766,,,,,,,,,,,,,,,,,,,,FF,,,,,,,,7,0.866195,,,,,,,,,,,,,,,,,,,,,,,,,,,,1,68,83,1,0,0,response1disk,4,10,12,1,0,0,rectangle,10,12,1,0,0,0,5,"[103,96,157,179,288,77,221,50,43,184,302,57,134,263,228,146,182,12,2,274]",10,12,1,0,0,0,197,34,34,135,1,,,,,,,,,,,,,,,,,,,,,
,,,,,,,,,,,,,,,,,,,,,,,,,,,,,,,,,,,,,,,,,,,5cf80c2ccbe8f10016dba137,5fb5d95ea1b9851d799bf75a,2020-11-18_20h34.49.712,Colour_Similarity_Experiment,2020.1.2,Linux x86_64,60,5fb5945709dec70f2d595766,,,,,,,,,,,,,,,,,,,,PF,,,,,,,,7,0.841875,,,,,,,,,,,,,,,,,,,,,,,,,,,,8,46,65,1,0,0,response1disk,5,11,-7,1,0,0,rectangle,11,-7,1,0,0,0,2,"[103,96,157,179,288,77,221,50,43,184,302,57,134,263,228,146,182,12,2,274]",11,-7,1,0,0,0,198,35,35,98,1,,,,,,,,,,,,,,,,,,,,,
,,,,,,,,,,,,,,,,,,,,,,,,,,,,,,,,,,,,,,,,,,,5cf80c2ccbe8f10016dba137,5fb5d95ea1b9851d799bf75a,2020-11-18_20h34.49.712,Colour_Similarity_Experiment,2020.1.2,Linux x86_64,60,5fb5945709dec70f2d595766,,,,,,,,,,,,,,,,,,,,FF,,,,,,,,5,2.17403,,,,,,,,,,,,,,,,,,,,,,,,,,,,6,97,-64,1,0,0,response3disk,7,-21,1,1,0,0,rectangle,-21,1,1,0,0,0,3,"[103,96,157,179,288,77,221,50,43,184,302,57,134,263,228,146,182,12,2,274]",-21,1,1,0,0,0,199,36,36,18,1,,,,,,,,,,,,,,,,,,,,,
,,,,,,,,,,,,,,,,,,,,,,,,,,,,,,,,,,,,,,,,,,,5cf80c2ccbe8f10016dba137,5fb5d95ea1b9851d799bf75a,2020-11-18_20h34.49.712,Colour_Similarity_Experiment,2020.1.2,Linux x86_64,60,5fb5945709dec70f2d595766,,,,,,,,,,,,,,,,,,,,FF,,,,,,,,6,0.973915,,,,,,,,,,,,,,,,,,,,,,,,,,,,9,111,48,1,0,0,response1disk,1,1,-7,1,0,0,rectangle,1,-7,1,0,0,0,4,"[103,96,157,179,288,77,221,50,43,184,302,57,134,263,228,146,182,12,2,274]",1,-7,1,0,0,0,200,37,37,111,1,,,,,,,,,,,,,,,,,,,,,
,,,,,,,,,,,,,,,,,,,,,,,,,,,,,,,,,,,,,,,,,,,5cf80c2ccbe8f10016dba137,5fb5d95ea1b9851d799bf75a,2020-11-18_20h34.49.712,Colour_Similarity_Experiment,2020.1.2,Linux x86_64,60,5fb5945709dec70f2d595766,,,,,,,,,,,,,,,,,,,,FF,,,,,,,,7,0.946475,,,,,,,,,,,,,,,,,,,,,,,,,,,,5,28,78,1,0,0,response1disk,7,10,-7,1,0,0,rectangle,10,-7,1,0,0,0,6,"[103,96,157,179,288,77,221,50,43,184,302,57,134,263,228,146,182,12,2,274]",10,-7,1,0,0,0,201,38,38,7,1,,,,,,,,,,,,,,,,,,,,,
,,,,,,,,,,,,,,,,,,,,,,,,,,,,,,,,,,,,,,,,,,,5cf80c2ccbe8f10016dba137,5fb5d95ea1b9851d799bf75a,2020-11-18_20h34.49.712,Colour_Similarity_Experiment,2020.1.2,Linux x86_64,60,5fb5945709dec70f2d595766,,,,,,,,,,,,,,,,,,,,FF,,,,,,,,7,0.7872,,,,,,,,,,,,,,,,,,,,,,,,,,,,2,23,83,1,0,0,response1disk,8,16,16,1,0,0,rectangle,16,16,1,0,0,0,6,"[103,96,157,179,288,77,221,50,43,184,302,57,134,263,228,146,182,12,2,274]",16,16,1,0,0,0,202,39,39,62,1,,,,,,,,,,,,,,,,,,,,,
