key_resp.keys,key_resp.rt,key_resp_16.keys,key_resp_16.rt,key_resp_2.keys,key_resp_2.rt,X Scale,ratio_pxpermm,screen_size_x,screen_size_y,testsize,key_resp_3.keys,key_resp_3.rt,key_resp_4.keys,key_resp_4.rt,line_size,key_resp_5.keys,key_resp_5.rt,key_resp_6.keys,key_resp_6.rt,key_resp_8.keys,key_resp_8.rt,key_resp_7.keys,key_resp_7.rt,key_resp_12.keys,key_resp_12.rt,key_resp_11.keys,key_resp_11.rt,key_resp_18.keys,key_resp_18.rt,key_resp_21.keys,key_resp_21.rt,key_resp_13.keys,key_resp_13.rt,key_resp_19.keys,key_resp_19.rt,ballposx,viewer_distance,trials.thisRepN,trials.thisTrialN,trials.thisN,trials.thisIndex,trials.ran,participant,session,date,expName,psychopyVersion,OS,frameRate,study_id,viewerdistancecm,DVA_to_distance,radius_F,radius_P,r_F,R_P,key_resp_20.keys,key_resp_20.rt,key_resp_14.keys,key_resp_14.rt,key_resp_15.keys,key_resp_15.rt,key_resp_17.keys,key_resp_17.rt,key_resp_9.keys,key_resp_9.rt,key_resp_10.keys,key_resp_10.rt,Colour_1,Ecc,mouse_5.x,mouse_5.y,mouse_5.leftButton,mouse_5.midButton,mouse_5.rightButton,mouse_5.clicked_name,Colour_2,similarity,response_time,mouse_10.x,mouse_10.y,mouse_10.leftButton,mouse_10.midButton,mouse_10.rightButton,mouse_10.clicked_name,mouse_7.x,mouse_7.y,mouse_7.leftButton,mouse_7.midButton,mouse_7.rightButton,catchnumberprac,mouse_6.x,mouse_6.y,mouse_6.leftButton,mouse_6.midButton,mouse_6.rightButton,duringprac.thisRepN,duringprac.thisTrialN,duringprac.thisN,duringprac.thisIndex,duringprac.ran,mouse_7.clicked_name,catchprac,mouse_6.clicked_name,key_resp_22.keys,key_resp_22.rt,Colour1,mouse.x,mouse.y,mouse.leftButton,mouse.midButton,mouse.rightButton,mouse.clicked_name,Colour2,mouse_2.x,mouse_2.y,mouse_2.leftButton,mouse_2.midButton,mouse_2.rightButton,mouse_2.clicked_name,mouse_3.x,mouse_3.y,mouse_3.leftButton,mouse_3.midButton,mouse_3.rightButton,catchresponse,catchnumber,catchtrialorder,mouse_11.x,mouse_11.y,mouse_11.leftButton,mouse_11.midButton,mouse_11.rightButton,trials_2.thisRepN,trialnumber,trials_2.thisTrialN,trials_2.thisN,trials_2.thisIndex,trials_2.ran,mouse_3.clicked_name,mouse_11.clicked_name,trials_3.thisRepN,trials_3.thisTrialN,trials_3.thisN,trials_3.thisIndex,trials_3.ran,answer1,rt1,answer2,rt2,answer3,rt3,answer4,rt4,answer5,rt5,answer6,rt6,answer7,rt7
space,3.165575,space,3.27264,space,5.00491,42.5,4.25,361.4117647,203.2941176,1536,space,17.50962,space,10.898635,85,space,9.87931,space,4.34751,space,0.735305,space,3.115665,space,4.84764,space,6.314565,space,15.250055,space,9.770285,space,11.176915,return,5.008995,-119.808,719.5758938,0,0,0,0,1,5d4857023c661b0001653a5d,5fb7070ae225251d0152f38e,2020-11-20_01h01.24.749,Colour_Similarity_Experiment,2020.1.2,Win32,60,5fb5945709dec70f2d595766,,,,,,,,,,,,,,,,,,,,,,,,,,,,,,,,,,,,,,,,,,,,,,,,,,,,,,,,,,,,,,,,,,,,,,,,,,,,,,,,,,,,,,,,,,,,,,,,,,,,,,,,,,,,,,
,,,,,,,,,,,,,,,,,,,,,,,,,,,,,,,,,,return,5.038405,-122.112,721.8339771,1,0,1,0,1,5d4857023c661b0001653a5d,5fb7070ae225251d0152f38e,2020-11-20_01h01.24.749,Colour_Similarity_Experiment,2020.1.2,Win32,60,5fb5945709dec70f2d595766,,,,,,,,,,,,,,,,,,,,,,,,,,,,,,,,,,,,,,,,,,,,,,,,,,,,,,,,,,,,,,,,,,,,,,,,,,,,,,,,,,,,,,,,,,,,,,,,,,,,,,,,,,,,,,
,,,,,,,,,,,,,,,,,,,,,,,,,,,,,,,,,,return,4.75044,-82.944,683.4465602,2,0,2,0,1,5d4857023c661b0001653a5d,5fb7070ae225251d0152f38e,2020-11-20_01h01.24.749,Colour_Similarity_Experiment,2020.1.2,Win32,60,5fb5945709dec70f2d595766,,,,,,,,,,,,,,,,,,,,,,,,,,,,,,,,,,,,,,,,,,,,,,,,,,,,,,,,,,,,,,,,,,,,,,,,,,,,,,,,,,,,,,,,,,,,,,,,,,,,,,,,,,,,,,
,,,,,,,,,,,,,,,,,,,,,,,,,,,,,,,,,,return,4.32577,-23.04,624.7363932,3,0,3,0,1,5d4857023c661b0001653a5d,5fb7070ae225251d0152f38e,2020-11-20_01h01.24.749,Colour_Similarity_Experiment,2020.1.2,Win32,60,5fb5945709dec70f2d595766,,,,,,,,,,,,,,,,,,,,,,,,,,,,,,,,,,,,,,,,,,,,,,,,,,,,,,,,,,,,,,,,,,,,,,,,,,,,,,,,,,,,,,,,,,,,,,,,,,,,,,,,,,,,,,
,,,,,,,,,,,,,,,,,,,,,,,,,,,,,,,,,,return,4.56714,-57.6,658.6076434,4,0,4,0,1,5d4857023c661b0001653a5d,5fb7070ae225251d0152f38e,2020-11-20_01h01.24.749,Colour_Similarity_Experiment,2020.1.2,Win32,60,5fb5945709dec70f2d595766,,,,,,,,,,,,,,,,,,,,,,,,,,,,,,,,,,,,,,,,,,,,,,,,,,,,,,,,,,,,,,,,,,,,,,,,,,,,,,,,,,,,,,,,,,,,,,,,,,,,,,,,,,,,,,
,,,,,,,,,,,,,,,,,,,,,,,,,,,,,,,,,,,,,,,,,,,5d4857023c661b0001653a5d,5fb7070ae225251d0152f38e,2020-11-20_01h01.24.749,Colour_Similarity_Experiment,2020.1.2,Win32,60,5fb5945709dec70f2d595766,68,11.86943991,75.6676794,504.451196,50.4451196,227.0030382,space,3.108225,space,5.056905,space,15.822665,space,2.07783,space,1.95189,space,7.70389,8,FF,-34.39994024,103.1999707,1,0,0,response7disk_5,5,0,14.03728,-7.999988675,-0.800006449,1,0,0,rectangle_8,-7.999988675,-0.800006449,1,0,0,7,-7.999988675,-0.800006449,1,0,0,0,0,0,3,1,,,,,,,,,,,,,,,,,,,,,,,,,,,,,,,,,,,,,,,,,,,,,,,,,,,,,,,,,,,
,,,,,,,,,,,,,,,,,,,,,,,,,,,,,,,,,,,,,,,,,,,5d4857023c661b0001653a5d,5fb7070ae225251d0152f38e,2020-11-20_01h01.24.749,Colour_Similarity_Experiment,2020.1.2,Win32,60,5fb5945709dec70f2d595766,,,,,,,,,,,,,,,,,,,2,PF,-46.39994042,103.1999707,1,0,0,response7disk_5,9,0,2.62569,-7.199988663,-2.400006473,1,0,0,rectangle_8,49.60006101,104.7999951,1,0,0,7,-11.19998872,0.799993575,1,0,0,0,1,1,6,1,response1disk_7,7,rectangle_4,,,,,,,,,,,,,,,,,,,,,,,,,,,,,,,,,,,,,,,,,,,,,,,,,,,,,,,,
,,,,,,,,,,,,,,,,,,,,,,,,,,,,,,,,,,,,,,,,,,,5d4857023c661b0001653a5d,5fb7070ae225251d0152f38e,2020-11-20_01h01.24.749,Colour_Similarity_Experiment,2020.1.2,Win32,60,5fb5945709dec70f2d595766,,,,,,,,,,,,,,,,,,,4,PF,37.60006083,112.7999952,1,0,0,response1disk_5,8,7,6.87738,-3.999988616,1.599993587,1,0,0,rectangle_8,-3.999988616,1.599993587,1,0,0,7,-3.999988616,1.599993587,1,0,0,0,2,2,1,1,,,,,,,,,,,,,,,,,,,,,,,,,,,,,,,,,,,,,,,,,,,,,,,,,,,,,,,,,,,
,,,,,,,,,,,,,,,,,,,,,,,,,,,,,,,,,,,,,,,,,,,5d4857023c661b0001653a5d,5fb7070ae225251d0152f38e,2020-11-20_01h01.24.749,Colour_Similarity_Experiment,2020.1.2,Win32,60,5fb5945709dec70f2d595766,,,,,,,,,,,,,,,,,,,6,FF,37.60006083,108.7999952,1,0,0,response1disk_5,9,7,2.535055,-10.39993988,-0.800006449,1,0,0,rectangle_8,-10.39993988,-0.800006449,1,0,0,7,-10.39993988,-0.800006449,1,0,0,0,3,3,0,1,,,,,,,,,,,,,,,,,,,,,,,,,,,,,,,,,,,,,,,,,,,,,,,,,,,,,,,,,,,
,,,,,,,,,,,,,,,,,,,,,,,,,,,,,,,,,,,,,,,,,,,5d4857023c661b0001653a5d,5fb7070ae225251d0152f38e,2020-11-20_01h01.24.749,Colour_Similarity_Experiment,2020.1.2,Win32,60,5fb5945709dec70f2d595766,,,,,,,,,,,,,,,,,,,6,PF,110.4000131,43.19996979,1,0,0,response1disk_5,8,6,3.03449,-6.399939823,3.19999361,1,0,0,rectangle_8,-6.399939823,3.19999361,1,0,0,7,-6.399939823,3.19999361,1,0,0,0,4,4,4,1,,,,,,,,,,,,,,,,,,,,,,,,,,,,,,,,,,,,,,,,,,,,,,,,,,,,,,,,,,,
,,,,,,,,,,,,,,,,,,,,,,,,,,,,,,,,,,,,,,,,,,,5d4857023c661b0001653a5d,5fb7070ae225251d0152f38e,2020-11-20_01h01.24.749,Colour_Similarity_Experiment,2020.1.2,Win32,60,5fb5945709dec70f2d595766,,,,,,,,,,,,,,,,,,,1,FF,101.600013,-59.20000732,1,0,0,response3disk_5,2,5,2.306725,-3.199988604,3.19999361,1,0,0,rectangle_8,-3.199988604,3.19999361,1,0,0,7,-3.199988604,3.19999361,1,0,0,0,5,5,5,1,,,,,,,,,,,,,,,,,,,,,,,,,,,,,,,,,,,,,,,,,,,,,,,,,,,,,,,,,,,
,,,,,,,,,,,,,,,,,,,,,,,,,,,,,,,,,,,,,,,,,,,5d4857023c661b0001653a5d,5fb7070ae225251d0152f38e,2020-11-20_01h01.24.749,Colour_Similarity_Experiment,2020.1.2,Win32,60,5fb5945709dec70f2d595766,,,,,,,,,,,,,,,,,,,9,PF,-57.59998941,123.9999954,1,0,0,response7disk_5,9,0,2.261165,1.600060296,-1.600006461,1,0,0,rectangle_8,1.600060296,-1.600006461,1,0,0,7,1.600060296,-1.600006461,1,0,0,0,6,6,2,1,,,,,,,,,,,,,,,,,,,,,,,,,,,,,,,,,,,,,,,,,,,,,,,,,,,,,,,,,,,
,,,,,,,,,,,,,,,,,,,,,,,,,,,,,,,,,,,,,,,,,,,5d4857023c661b0001653a5d,5fb7070ae225251d0152f38e,2020-11-20_01h01.24.749,Colour_Similarity_Experiment,2020.1.2,Win32,60,5fb5945709dec70f2d595766,,,,,,,,,,,,,,,,,,,,FF,,,,,,,,6,2.987895,,,,,,,,,,,,,,,,,,,,,,,,,,space,3.488805,7,110.4000131,50.39999431,1,0,0,response1disk,5,-6.399939823,3.999993622,1,0,0,rectangle,-6.399939823,3.999993622,1,0,0,,1,"[276,72,302,31,133,244,183,293,113,316,307,62,258,282,86,262,160,103,130,243]",-6.399939823,3.999993622,1,0,0,0,1,0,0,156,1,,,,,,,,,,,,,,,,,,,,,
,,,,,,,,,,,,,,,,,,,,,,,,,,,,,,,,,,,,,,,,,,,5d4857023c661b0001653a5d,5fb7070ae225251d0152f38e,2020-11-20_01h01.24.749,Colour_Similarity_Experiment,2020.1.2,Win32,60,5fb5945709dec70f2d595766,,,,,,,,,,,,,,,,,,,,PF,,,,,,,,7,1.77812,,,,,,,,,,,,,,,,,,,,,,,,,,,,9,64.0000124,109.5999952,1,0,0,response1disk,7,-4.799988627,5.599993646,1,0,0,rectangle,-4.799988627,5.599993646,1,0,0,,7,"[276,72,302,31,133,244,183,293,113,316,307,62,258,282,86,262,160,103,130,243]",-4.799988627,5.599993646,1,0,0,0,2,1,1,121,1,,,,,,,,,,,,,,,,,,,,,
,,,,,,,,,,,,,,,,,,,,,,,,,,,,,,,,,,,,,,,,,,,5d4857023c661b0001653a5d,5fb7070ae225251d0152f38e,2020-11-20_01h01.24.749,Colour_Similarity_Experiment,2020.1.2,Win32,60,5fb5945709dec70f2d595766,,,,,,,,,,,,,,,,,,,,FF,,,,,,,,7,1.7662,,,,,,,,,,,,,,,,,,,,,,,,,,,,1,58.40001231,107.1999707,1,0,0,response1disk,8,-2.399939764,1.599993587,1,0,0,rectangle,-2.399939764,1.599993587,1,0,0,,6,"[276,72,302,31,133,244,183,293,113,316,307,62,258,282,86,262,160,103,130,243]",-2.399939764,1.599993587,1,0,0,0,3,2,2,27,1,,,,,,,,,,,,,,,,,,,,,
,,,,,,,,,,,,,,,,,,,,,,,,,,,,,,,,,,,,,,,,,,,5d4857023c661b0001653a5d,5fb7070ae225251d0152f38e,2020-11-20_01h01.24.749,Colour_Similarity_Experiment,2020.1.2,Win32,60,5fb5945709dec70f2d595766,,,,,,,,,,,,,,,,,,,,FF,,,,,,,,7,1.6603,,,,,,,,,,,,,,,,,,,,,,,,,,,,4,45.60006095,102.3999951,1,0,0,response1disk,2,-8.799988687,-1.600006461,1,0,0,rectangle,-8.799988687,-1.600006461,1,0,0,,3,"[276,72,302,31,133,244,183,293,113,316,307,62,258,282,86,262,160,103,130,243]",-8.799988687,-1.600006461,1,0,0,0,4,3,3,13,1,,,,,,,,,,,,,,,,,,,,,
,,,,,,,,,,,,,,,,,,,,,,,,,,,,,,,,,,,,,,,,,,,5d4857023c661b0001653a5d,5fb7070ae225251d0152f38e,2020-11-20_01h01.24.749,Colour_Similarity_Experiment,2020.1.2,Win32,60,5fb5945709dec70f2d595766,,,,,,,,,,,,,,,,,,,,PF,,,,,,,,0,2.54115,,,,,,,,,,,,,,,,,,,,,,,,,,,,3,-39.19998914,103.9999951,1,0,0,response7disk,3,0.800011456,4.799993634,1,0,0,rectangle,0.800011456,4.799993634,1,0,0,,7,"[276,72,302,31,133,244,183,293,113,316,307,62,258,282,86,262,160,103,130,243]",0.800011456,4.799993634,1,0,0,0,5,4,4,4,1,,,,,,,,,,,,,,,,,,,,,
,,,,,,,,,,,,,,,,,,,,,,,,,,,,,,,,,,,,,,,,,,,5d4857023c661b0001653a5d,5fb7070ae225251d0152f38e,2020-11-20_01h01.24.749,Colour_Similarity_Experiment,2020.1.2,Win32,60,5fb5945709dec70f2d595766,,,,,,,,,,,,,,,,,,,,FF,,,,,,,,4,3.20686,,,,,,,,,,,,,,,,,,,,,,,,,,,,5,50.4000122,-106.400008,1,0,0,response3disk,3,-11.99998873,-2.400006473,1,0,0,rectangle,-11.99998873,-2.400006473,1,0,0,,4,"[276,72,302,31,133,244,183,293,113,316,307,62,258,282,86,262,160,103,130,243]",-11.99998873,-2.400006473,1,0,0,0,6,5,5,25,1,,,,,,,,,,,,,,,,,,,,,
,,,,,,,,,,,,,,,,,,,,,,,,,,,,,,,,,,,,,,,,,,,5d4857023c661b0001653a5d,5fb7070ae225251d0152f38e,2020-11-20_01h01.24.749,Colour_Similarity_Experiment,2020.1.2,Win32,60,5fb5945709dec70f2d595766,,,,,,,,,,,,,,,,,,,,PF,,,,,,,,7,1.71395,,,,,,,,,,,,,,,,,,,,,,,,,,,,8,56.80001229,116.7999953,1,0,0,response1disk,4,-3.999988616,-3.200006485,1,0,0,rectangle,-3.999988616,-3.200006485,1,0,0,,7,"[276,72,302,31,133,244,183,293,113,316,307,62,258,282,86,262,160,103,130,243]",-3.999988616,-3.200006485,1,0,0,0,7,6,6,78,1,,,,,,,,,,,,,,,,,,,,,
,,,,,,,,,,,,,,,,,,,,,,,,,,,,,,,,,,,,,,,,,,,5d4857023c661b0001653a5d,5fb7070ae225251d0152f38e,2020-11-20_01h01.24.749,Colour_Similarity_Experiment,2020.1.2,Win32,60,5fb5945709dec70f2d595766,,,,,,,,,,,,,,,,,,,,PF,,,,,,,,5,1.99193,,,,,,,,,,,,,,,,,,,,,,,,,,,,5,88.00001276,-40.00000703,1,0,0,response3disk,3,-18.39994,-1.600006461,1,0,0,rectangle,-18.39994,-1.600006461,1,0,0,,7,"[276,72,302,31,133,244,183,293,113,316,307,62,258,282,86,262,160,103,130,243]",-18.39994,-1.600006461,1,0,0,0,8,7,7,109,1,,,,,,,,,,,,,,,,,,,,,
,,,,,,,,,,,,,,,,,,,,,,,,,,,,,,,,,,,,,,,,,,,5d4857023c661b0001653a5d,5fb7070ae225251d0152f38e,2020-11-20_01h01.24.749,Colour_Similarity_Experiment,2020.1.2,Win32,60,5fb5945709dec70f2d595766,,,,,,,,,,,,,,,,,,,,FF,,,,,,,,7,1.79402,,,,,,,,,,,,,,,,,,,,,,,,,,,,7,56.80001229,95.19997057,1,0,0,response1disk,8,1.600060296,9.599993706,1,0,0,rectangle,1.600060296,9.599993706,1,0,0,,3,"[276,72,302,31,133,244,183,293,113,316,307,62,258,282,86,262,160,103,130,243]",1.600060296,9.599993706,1,0,0,0,9,8,8,97,1,,,,,,,,,,,,,,,,,,,,,
,,,,,,,,,,,,,,,,,,,,,,,,,,,,,,,,,,,,,,,,,,,5d4857023c661b0001653a5d,5fb7070ae225251d0152f38e,2020-11-20_01h01.24.749,Colour_Similarity_Experiment,2020.1.2,Win32,60,5fb5945709dec70f2d595766,,,,,,,,,,,,,,,,,,,,FF,,,,,,,,7,5.125195,,,,,,,,,,,,,,,,,,,,,,,,,,,,9,46.40001214,108.7999952,1,0,0,response1disk,6,1.14E-05,7.999993682,1,0,0,rectangle,1.14E-05,7.999993682,1,0,0,,5,"[276,72,302,31,133,244,183,293,113,316,307,62,258,282,86,262,160,103,130,243]",1.14E-05,7.999993682,1,0,0,0,10,9,9,117,1,,,,,,,,,,,,,,,,,,,,,
,,,,,,,,,,,,,,,,,,,,,,,,,,,,,,,,,,,,,,,,,,,5d4857023c661b0001653a5d,5fb7070ae225251d0152f38e,2020-11-20_01h01.24.749,Colour_Similarity_Experiment,2020.1.2,Win32,60,5fb5945709dec70f2d595766,,,,,,,,,,,,,,,,,,,,PF,,,,,,,,7,1.45409,,,,,,,,,,,,,,,,,,,,,,,,,,,,3,43.20001209,118.3999953,1,0,0,response1disk,9,-3.199988604,-0.800006449,1,0,0,rectangle,-3.199988604,-0.800006449,1,0,0,,1,"[276,72,302,31,133,244,183,293,113,316,307,62,258,282,86,262,160,103,130,243]",-3.199988604,-0.800006449,1,0,0,0,11,10,10,79,1,,,,,,,,,,,,,,,,,,,,,
,,,,,,,,,,,,,,,,,,,,,,,,,,,,,,,,,,,,,,,,,,,5d4857023c661b0001653a5d,5fb7070ae225251d0152f38e,2020-11-20_01h01.24.749,Colour_Similarity_Experiment,2020.1.2,Win32,60,5fb5945709dec70f2d595766,,,,,,,,,,,,,,,,,,,,FF,,,,,,,,7,1.683825,,,,,,,,,,,,,,,,,,,,,,,,,,,,3,46.40001214,111.9999952,1,0,0,response1disk,1,0.800011456,1.599993587,1,0,0,rectangle,0.800011456,1.599993587,1,0,0,,5,"[276,72,302,31,133,244,183,293,113,316,307,62,258,282,86,262,160,103,130,243]",0.800011456,1.599993587,1,0,0,0,12,11,11,125,1,,,,,,,,,,,,,,,,,,,,,
,,,,,,,,,,,,,,,,,,,,,,,,,,,,,,,,,,,,,,,,,,,5d4857023c661b0001653a5d,5fb7070ae225251d0152f38e,2020-11-20_01h01.24.749,Colour_Similarity_Experiment,2020.1.2,Win32,60,5fb5945709dec70f2d595766,,,,,,,,,,,,,,,,,,,,FF,,,,,,,,7,1.04116,,,,,,,,,,,,,,,,,,,,,,,,,,,,9,34.40001196,107.9999952,1,0,0,response1disk,3,-3.999988616,-8.800006568,1,0,0,rectangle,-3.999988616,-8.800006568,1,0,0,,4,"[276,72,302,31,133,244,183,293,113,316,307,62,258,282,86,262,160,103,130,243]",-3.999988616,-8.800006568,1,0,0,0,13,12,12,141,1,,,,,,,,,,,,,,,,,,,,,
,,,,,,,,,,,,,,,,,,,,,,,,,,,,,,,,,,,,,,,,,,,5d4857023c661b0001653a5d,5fb7070ae225251d0152f38e,2020-11-20_01h01.24.749,Colour_Similarity_Experiment,2020.1.2,Win32,60,5fb5945709dec70f2d595766,,,,,,,,,,,,,,,,,,,,PF,,,,,,,,7,2.57681,,,,,,,,,,,,,,,,,,,,,,,,,,,,2,36.80001199,108.7999952,1,0,0,response1disk,3,-0.799988568,-2.400006473,1,0,0,rectangle,-0.799988568,-2.400006473,1,0,0,,6,"[276,72,302,31,133,244,183,293,113,316,307,62,258,282,86,262,160,103,130,243]",-0.799988568,-2.400006473,1,0,0,0,14,13,13,69,1,,,,,,,,,,,,,,,,,,,,,
,,,,,,,,,,,,,,,,,,,,,,,,,,,,,,,,,,,,,,,,,,,5d4857023c661b0001653a5d,5fb7070ae225251d0152f38e,2020-11-20_01h01.24.749,Colour_Similarity_Experiment,2020.1.2,Win32,60,5fb5945709dec70f2d595766,,,,,,,,,,,,,,,,,,,,FF,,,,,,,,7,1.266285,,,,,,,,,,,,,,,,,,,,,,,,,,,,8,44.80001211,103.9999951,1,0,0,response1disk,4,-2.399939764,-0.800006449,1,0,0,rectangle,-2.399939764,-0.800006449,1,0,0,,3,"[276,72,302,31,133,244,183,293,113,316,307,62,258,282,86,262,160,103,130,243]",-2.399939764,-0.800006449,1,0,0,0,15,14,14,88,1,,,,,,,,,,,,,,,,,,,,,
,,,,,,,,,,,,,,,,,,,,,,,,,,,,,,,,,,,,,,,,,,,5d4857023c661b0001653a5d,5fb7070ae225251d0152f38e,2020-11-20_01h01.24.749,Colour_Similarity_Experiment,2020.1.2,Win32,60,5fb5945709dec70f2d595766,,,,,,,,,,,,,,,,,,,,FF,,,,,,,,0,1.89827,,,,,,,,,,,,,,,,,,,,,,,,,,,,5,-42.39994036,113.5999953,1,0,0,response7disk,5,-5.599988639,12.79999375,1,0,0,rectangle,-5.599988639,12.79999375,1,0,0,,3,"[276,72,302,31,133,244,183,293,113,316,307,62,258,282,86,262,160,103,130,243]",-5.599988639,12.79999375,1,0,0,0,16,15,15,19,1,,,,,,,,,,,,,,,,,,,,,
,,,,,,,,,,,,,,,,,,,,,,,,,,,,,,,,,,,,,,,,,,,5d4857023c661b0001653a5d,5fb7070ae225251d0152f38e,2020-11-20_01h01.24.749,Colour_Similarity_Experiment,2020.1.2,Win32,60,5fb5945709dec70f2d595766,,,,,,,,,,,,,,,,,,,,FF,,,,,,,,7,1.277345,,,,,,,,,,,,,,,,,,,,,,,,,,,,2,46.40001214,103.9999951,1,0,0,response1disk,8,1.14E-05,-0.800006449,1,0,0,rectangle,1.14E-05,-0.800006449,1,0,0,,3,"[276,72,302,31,133,244,183,293,113,316,307,62,258,282,86,262,160,103,130,243]",1.14E-05,-0.800006449,1,0,0,0,17,16,16,62,1,,,,,,,,,,,,,,,,,,,,,
,,,,,,,,,,,,,,,,,,,,,,,,,,,,,,,,,,,,,,,,,,,5d4857023c661b0001653a5d,5fb7070ae225251d0152f38e,2020-11-20_01h01.24.749,Colour_Similarity_Experiment,2020.1.2,Win32,60,5fb5945709dec70f2d595766,,,,,,,,,,,,,,,,,,,,FF,,,,,,,,7,4.32974,,,,,,,,,,,,,,,,,,,,,,,,,,,,5,40.80001205,107.1999707,1,0,0,response1disk,6,1.600060296,-1.600006461,1,0,0,rectangle,1.600060296,-1.600006461,1,0,0,,6,"[276,72,302,31,133,244,183,293,113,316,307,62,258,282,86,262,160,103,130,243]",1.600060296,-1.600006461,1,0,0,0,18,17,17,12,1,,,,,,,,,,,,,,,,,,,,,
,,,,,,,,,,,,,,,,,,,,,,,,,,,,,,,,,,,,,,,,,,,5d4857023c661b0001653a5d,5fb7070ae225251d0152f38e,2020-11-20_01h01.24.749,Colour_Similarity_Experiment,2020.1.2,Win32,60,5fb5945709dec70f2d595766,,,,,,,,,,,,,,,,,,,,FF,,,,,,,,7,3.78123,,,,,,,,,,,,,,,,,,,,,,,,,,,,8,43.20001209,104.7999951,1,0,0,response1disk,7,1.14E-05,11.19999373,1,0,0,rectangle,1.14E-05,11.19999373,1,0,0,,7,"[276,72,302,31,133,244,183,293,113,316,307,62,258,282,86,262,160,103,130,243]",1.14E-05,11.19999373,1,0,0,0,19,18,18,86,1,,,,,,,,,,,,,,,,,,,,,
,,,,,,,,,,,,,,,,,,,,,,,,,,,,,,,,,,,,,,,,,,,5d4857023c661b0001653a5d,5fb7070ae225251d0152f38e,2020-11-20_01h01.24.749,Colour_Similarity_Experiment,2020.1.2,Win32,60,5fb5945709dec70f2d595766,,,,,,,,,,,,,,,,,,,,FF,,,,,,,,7,1.25521,,,,,,,,,,,,,,,,,,,,,,,,,,,,5,38.40001202,109.5999952,1,0,0,response1disk,2,-3.199988604,-2.400006473,1,0,0,rectangle,-3.199988604,-2.400006473,1,0,0,,7,"[276,72,302,31,133,244,183,293,113,316,307,62,258,282,86,262,160,103,130,243]",-3.199988604,-2.400006473,1,0,0,0,20,19,19,55,1,,,,,,,,,,,,,,,,,,,,,
,,,,,,,,,,,,,,,,,,,,,,,,,,,,,,,,,,,,,,,,,,,5d4857023c661b0001653a5d,5fb7070ae225251d0152f38e,2020-11-20_01h01.24.749,Colour_Similarity_Experiment,2020.1.2,Win32,60,5fb5945709dec70f2d595766,,,,,,,,,,,,,,,,,,,,PF,,,,,,,,0,1.45689,,,,,,,,,,,,,,,,,,,,,,,,,,,,8,-50.39994048,114.3999953,1,0,0,response7disk,8,5.600060356,-4.800006509,1,0,0,rectangle,5.600060356,-4.800006509,1,0,0,,7,"[276,72,302,31,133,244,183,293,113,316,307,62,258,282,86,262,160,103,130,243]",5.600060356,-4.800006509,1,0,0,0,21,20,20,153,1,,,,,,,,,,,,,,,,,,,,,
,,,,,,,,,,,,,,,,,,,,,,,,,,,,,,,,,,,,,,,,,,,5d4857023c661b0001653a5d,5fb7070ae225251d0152f38e,2020-11-20_01h01.24.749,Colour_Similarity_Experiment,2020.1.2,Win32,60,5fb5945709dec70f2d595766,,,,,,,,,,,,,,,,,,,,PF,,,,,,,,7,1.4496,,,,,,,,,,,,,,,,,,,,,,,,,,,,2,45.60006095,109.5999952,1,0,0,response1disk,7,-9.599988699,2.399993598,1,0,0,rectangle,-9.599988699,2.399993598,1,0,0,,0,"[276,72,302,31,133,244,183,293,113,316,307,62,258,282,86,262,160,103,130,243]",-9.599988699,2.399993598,1,0,0,0,22,21,21,107,1,,,,,,,,,,,,,,,,,,,,,
,,,,,,,,,,,,,,,,,,,,,,,,,,,,,,,,,,,,,,,,,,,5d4857023c661b0001653a5d,5fb7070ae225251d0152f38e,2020-11-20_01h01.24.749,Colour_Similarity_Experiment,2020.1.2,Win32,60,5fb5945709dec70f2d595766,,,,,,,,,,,,,,,,,,,,FF,,,,,,,,7,1.22146,,,,,,,,,,,,,,,,,,,,,,,,,,,,8,44.80001211,114.3999953,1,0,0,response1disk,1,-5.599988639,-4.000006497,1,0,0,rectangle,-5.599988639,-4.000006497,1,0,0,,1,"[276,72,302,31,133,244,183,293,113,316,307,62,258,282,86,262,160,103,130,243]",-5.599988639,-4.000006497,1,0,0,0,23,22,22,20,1,,,,,,,,,,,,,,,,,,,,,
,,,,,,,,,,,,,,,,,,,,,,,,,,,,,,,,,,,,,,,,,,,5d4857023c661b0001653a5d,5fb7070ae225251d0152f38e,2020-11-20_01h01.24.749,Colour_Similarity_Experiment,2020.1.2,Win32,60,5fb5945709dec70f2d595766,,,,,,,,,,,,,,,,,,,,PF,,,,,,,,6,2.464035,,,,,,,,,,,,,,,,,,,,,,,,,,,,2,103.200013,46.39999425,1,0,0,response1disk,1,-9.599988699,-8.000006557,1,0,0,rectangle,-9.599988699,-8.000006557,1,0,0,,1,"[276,72,302,31,133,244,183,293,113,316,307,62,258,282,86,262,160,103,130,243]",-9.599988699,-8.000006557,1,0,0,0,24,23,23,9,1,,,,,,,,,,,,,,,,,,,,,
,,,,,,,,,,,,,,,,,,,,,,,,,,,,,,,,,,,,,,,,,,,5d4857023c661b0001653a5d,5fb7070ae225251d0152f38e,2020-11-20_01h01.24.749,Colour_Similarity_Experiment,2020.1.2,Win32,60,5fb5945709dec70f2d595766,,,,,,,,,,,,,,,,,,,,FF,,,,,,,,7,3.28061,,,,,,,,,,,,,,,,,,,,,,,,,,,,5,36.00001198,107.1999707,1,0,0,response1disk,4,1.14E-05,-6.44E-06,1,0,0,rectangle,1.14E-05,-6.44E-06,1,0,0,,0,"[276,72,302,31,133,244,183,293,113,316,307,62,258,282,86,262,160,103,130,243]",1.14E-05,-6.44E-06,1,0,0,0,25,24,24,8,1,,,,,,,,,,,,,,,,,,,,,
,,,,,,,,,,,,,,,,,,,,,,,,,,,,,,,,,,,,,,,,,,,5d4857023c661b0001653a5d,5fb7070ae225251d0152f38e,2020-11-20_01h01.24.749,Colour_Similarity_Experiment,2020.1.2,Win32,60,5fb5945709dec70f2d595766,,,,,,,,,,,,,,,,,,,,FF,,,,,,,,7,1.2617,,,,,,,,,,,,,,,,,,,,,,,,,,,,3,40.00001204,115.9999953,1,0,0,response1disk,7,-11.99998873,-6.44E-06,1,0,0,rectangle,-11.99998873,-6.44E-06,1,0,0,,0,"[276,72,302,31,133,244,183,293,113,316,307,62,258,282,86,262,160,103,130,243]",-11.99998873,-6.44E-06,1,0,0,0,26,25,25,118,1,,,,,,,,,,,,,,,,,,,,,
,,,,,,,,,,,,,,,,,,,,,,,,,,,,,,,,,,,,,,,,,,,5d4857023c661b0001653a5d,5fb7070ae225251d0152f38e,2020-11-20_01h01.24.749,Colour_Similarity_Experiment,2020.1.2,Win32,60,5fb5945709dec70f2d595766,,,,,,,,,,,,,,,,,,,,FF,,,,,,,,7,1.275215,,,,,,,,,,,,,,,,,,,,,,,,,,,,7,43.20001209,123.199971,1,0,0,response1disk,2,0.800011456,1.599993587,1,0,0,rectangle,0.800011456,1.599993587,1,0,0,,5,"[276,72,302,31,133,244,183,293,113,316,307,62,258,282,86,262,160,103,130,243]",0.800011456,1.599993587,1,0,0,0,27,26,26,138,1,,,,,,,,,,,,,,,,,,,,,
,,,,,,,,,,,,,,,,,,,,,,,,,,,,,,,,,,,,,,,,,,,5d4857023c661b0001653a5d,5fb7070ae225251d0152f38e,2020-11-20_01h01.24.749,Colour_Similarity_Experiment,2020.1.2,Win32,60,5fb5945709dec70f2d595766,,,,,,,,,,,,,,,,,,,,PF,,,,,,,,7,1.152125,,,,,,,,,,,,,,,,,,,,,,,,,,,,4,53.60001224,111.1999708,1,0,0,response1disk,1,-2.399939764,2.399993598,1,0,0,rectangle,-2.399939764,2.399993598,1,0,0,,1,"[276,72,302,31,133,244,183,293,113,316,307,62,258,282,86,262,160,103,130,243]",-2.399939764,2.399993598,1,0,0,0,28,27,27,115,1,,,,,,,,,,,,,,,,,,,,,
,,,,,,,,,,,,,,,,,,,,,,,,,,,,,,,,,,,,,,,,,,,5d4857023c661b0001653a5d,5fb7070ae225251d0152f38e,2020-11-20_01h01.24.749,Colour_Similarity_Experiment,2020.1.2,Win32,60,5fb5945709dec70f2d595766,,,,,,,,,,,,,,,,,,,,PF,,,,,,,,7,1.270535,,,,,,,,,,,,,,,,,,,,,,,,,,,,1,45.60006095,113.5999953,1,0,0,response1disk,6,-4.799988627,-1.600006461,1,0,0,rectangle,-4.799988627,-1.600006461,1,0,0,,5,"[276,72,302,31,133,244,183,293,113,316,307,62,258,282,86,262,160,103,130,243]",-4.799988627,-1.600006461,1,0,0,0,29,28,28,144,1,,,,,,,,,,,,,,,,,,,,,
,,,,,,,,,,,,,,,,,,,,,,,,,,,,,,,,,,,,,,,,,,,5d4857023c661b0001653a5d,5fb7070ae225251d0152f38e,2020-11-20_01h01.24.749,Colour_Similarity_Experiment,2020.1.2,Win32,60,5fb5945709dec70f2d595766,,,,,,,,,,,,,,,,,,,,FF,,,,,,,,7,1.96012,,,,,,,,,,,,,,,,,,,,,,,,,,,,9,48.00001216,115.9999953,1,0,0,response1disk,1,-6.399939823,7.19999367,1,0,0,rectangle,-6.399939823,7.19999367,1,0,0,,3,"[276,72,302,31,133,244,183,293,113,316,307,62,258,282,86,262,160,103,130,243]",-6.399939823,7.19999367,1,0,0,0,30,29,29,111,1,,,,,,,,,,,,,,,,,,,,,
,,,,,,,,,,,,,,,,,,,,,,,,,,,,,,,,,,,,,,,,,,,5d4857023c661b0001653a5d,5fb7070ae225251d0152f38e,2020-11-20_01h01.24.749,Colour_Similarity_Experiment,2020.1.2,Win32,60,5fb5945709dec70f2d595766,,,,,,,,,,,,,,,,,,,,FF,,,,,,,,7,1.453735,,,,,,,,,,,,,,,,,,,,,,,,,,,,7,43.20001209,95.19997057,1,0,0,response1disk,3,-7.999988675,-2.400006473,1,0,0,rectangle,106.400013,47.99999428,1,0,0,6,6,"[276,72,302,31,133,244,183,293,113,316,307,62,258,282,86,262,160,103,130,243]",1.14E-05,4.799993634,1,0,0,0,31,30,30,73,1,response1disk_3,rectangle,,,,,,,,,,,,,,,,,,,
,,,,,,,,,,,,,,,,,,,,,,,,,,,,,,,,,,,,,,,,,,,5d4857023c661b0001653a5d,5fb7070ae225251d0152f38e,2020-11-20_01h01.24.749,Colour_Similarity_Experiment,2020.1.2,Win32,60,5fb5945709dec70f2d595766,,,,,,,,,,,,,,,,,,,,FF,,,,,,,,7,1.36534,,,,,,,,,,,,,,,,,,,,,,,,,,,,3,41.60006089,115.1999709,1,0,0,response1disk,9,-1.59998858,-0.800006449,1,0,0,rectangle,-1.59998858,-0.800006449,1,0,0,6,0,"[276,72,302,31,133,244,183,293,113,316,307,62,258,282,86,262,160,103,130,243]",-1.59998858,-0.800006449,1,0,0,0,32,31,31,143,1,,,,,,,,,,,,,,,,,,,,,
,,,,,,,,,,,,,,,,,,,,,,,,,,,,,,,,,,,,,,,,,,,5d4857023c661b0001653a5d,5fb7070ae225251d0152f38e,2020-11-20_01h01.24.749,Colour_Similarity_Experiment,2020.1.2,Win32,60,5fb5945709dec70f2d595766,,,,,,,,,,,,,,,,,,,,PF,,,,,,,,7,2.13797,,,,,,,,,,,,,,,,,,,,,,,,,,,,8,40.80001205,85.59999484,1,0,0,response1disk,3,-4.799988627,0.799993575,1,0,0,rectangle,-4.799988627,0.799993575,1,0,0,6,4,"[276,72,302,31,133,244,183,293,113,316,307,62,258,282,86,262,160,103,130,243]",-4.799988627,0.799993575,1,0,0,0,33,32,32,71,1,,,,,,,,,,,,,,,,,,,,,
,,,,,,,,,,,,,,,,,,,,,,,,,,,,,,,,,,,,,,,,,,,5d4857023c661b0001653a5d,5fb7070ae225251d0152f38e,2020-11-20_01h01.24.749,Colour_Similarity_Experiment,2020.1.2,Win32,60,5fb5945709dec70f2d595766,,,,,,,,,,,,,,,,,,,,PF,,,,,,,,5,2.23434,,,,,,,,,,,,,,,,,,,,,,,,,,,,4,74.40001255,-42.40000707,1,0,0,response3disk,5,-6.399939823,2.399993598,1,0,0,rectangle,-6.399939823,2.399993598,1,0,0,6,6,"[276,72,302,31,133,244,183,293,113,316,307,62,258,282,86,262,160,103,130,243]",-6.399939823,2.399993598,1,0,0,0,34,33,33,49,1,,,,,,,,,,,,,,,,,,,,,
,,,,,,,,,,,,,,,,,,,,,,,,,,,,,,,,,,,,,,,,,,,5d4857023c661b0001653a5d,5fb7070ae225251d0152f38e,2020-11-20_01h01.24.749,Colour_Similarity_Experiment,2020.1.2,Win32,60,5fb5945709dec70f2d595766,,,,,,,,,,,,,,,,,,,,FF,,,,,,,,7,1.341855,,,,,,,,,,,,,,,,,,,,,,,,,,,,8,47.20001215,109.5999952,1,0,0,response1disk,6,-3.999988616,-6.400006533,1,0,0,rectangle,-3.999988616,-6.400006533,1,0,0,6,1,"[276,72,302,31,133,244,183,293,113,316,307,62,258,282,86,262,160,103,130,243]",-3.999988616,-6.400006533,1,0,0,0,35,34,34,37,1,,,,,,,,,,,,,,,,,,,,,
,,,,,,,,,,,,,,,,,,,,,,,,,,,,,,,,,,,,,,,,,,,5d4857023c661b0001653a5d,5fb7070ae225251d0152f38e,2020-11-20_01h01.24.749,Colour_Similarity_Experiment,2020.1.2,Win32,60,5fb5945709dec70f2d595766,,,,,,,,,,,,,,,,,,,,PF,,,,,,,,5,1.561645,,,,,,,,,,,,,,,,,,,,,,,,,,,,5,98.40001291,-44.8000071,1,0,0,response3disk,4,5.600060356,-3.200006485,1,0,0,rectangle,5.600060356,-3.200006485,1,0,0,6,4,"[276,72,302,31,133,244,183,293,113,316,307,62,258,282,86,262,160,103,130,243]",5.600060356,-3.200006485,1,0,0,0,36,35,35,54,1,,,,,,,,,,,,,,,,,,,,,
,,,,,,,,,,,,,,,,,,,,,,,,,,,,,,,,,,,,,,,,,,,5d4857023c661b0001653a5d,5fb7070ae225251d0152f38e,2020-11-20_01h01.24.749,Colour_Similarity_Experiment,2020.1.2,Win32,60,5fb5945709dec70f2d595766,,,,,,,,,,,,,,,,,,,,FF,,,,,,,,7,0.997635,,,,,,,,,,,,,,,,,,,,,,,,,,,,1,40.00001204,106.3999951,1,0,0,response1disk,4,-1.59998858,8.799993694,1,0,0,rectangle,-1.59998858,8.799993694,1,0,0,6,0,"[276,72,302,31,133,244,183,293,113,316,307,62,258,282,86,262,160,103,130,243]",-1.59998858,8.799993694,1,0,0,0,37,36,36,135,1,,,,,,,,,,,,,,,,,,,,,
,,,,,,,,,,,,,,,,,,,,,,,,,,,,,,,,,,,,,,,,,,,5d4857023c661b0001653a5d,5fb7070ae225251d0152f38e,2020-11-20_01h01.24.749,Colour_Similarity_Experiment,2020.1.2,Win32,60,5fb5945709dec70f2d595766,,,,,,,,,,,,,,,,,,,,PF,,,,,,,,7,1.026715,,,,,,,,,,,,,,,,,,,,,,,,,,,,7,40.00001204,109.5999952,1,0,0,response1disk,9,-3.199988604,-8.000006557,1,0,0,rectangle,-3.199988604,-8.000006557,1,0,0,6,0,"[276,72,302,31,133,244,183,293,113,316,307,62,258,282,86,262,160,103,130,243]",-3.199988604,-8.000006557,1,0,0,0,38,37,37,10,1,,,,,,,,,,,,,,,,,,,,,
,,,,,,,,,,,,,,,,,,,,,,,,,,,,,,,,,,,,,,,,,,,5d4857023c661b0001653a5d,5fb7070ae225251d0152f38e,2020-11-20_01h01.24.749,Colour_Similarity_Experiment,2020.1.2,Win32,60,5fb5945709dec70f2d595766,,,,,,,,,,,,,,,,,,,,FF,,,,,,,,5,3.411765,,,,,,,,,,,,,,,,,,,,,,,,,,,,4,90.40001279,-36.80000699,1,0,0,response3disk,5,-8.799988687,-3.200006485,1,0,0,rectangle,-8.799988687,-3.200006485,1,0,0,6,4,"[276,72,302,31,133,244,183,293,113,316,307,62,258,282,86,262,160,103,130,243]",-8.799988687,-3.200006485,1,0,0,0,39,38,38,116,1,,,,,,,,,,,,,,,,,,,,,
,,,,,,,,,,,,,,,,,,,,,,,,,,,,,,,,,,,,,,,,,,,5d4857023c661b0001653a5d,5fb7070ae225251d0152f38e,2020-11-20_01h01.24.749,Colour_Similarity_Experiment,2020.1.2,Win32,60,5fb5945709dec70f2d595766,,,,,,,,,,,,,,,,,,,,FF,,,,,,,,7,1.02877,,,,,,,,,,,,,,,,,,,,,,,,,,,,2,43.20001209,91.99999493,1,0,0,response1disk,9,4.800011516,0.799993575,1,0,0,rectangle,4.800011516,0.799993575,1,0,0,6,0,"[276,72,302,31,133,244,183,293,113,316,307,62,258,282,86,262,160,103,130,243]",4.800011516,0.799993575,1,0,0,0,40,39,39,72,1,,,,,,,,,,,,,,,,,,,,,
,,,,,,,,,,,,,,,,,,,,,,,,,,,,,,,,,,,,,,,,,,,5d4857023c661b0001653a5d,5fb7070ae225251d0152f38e,2020-11-20_01h01.24.749,Colour_Similarity_Experiment,2020.1.2,Win32,60,5fb5945709dec70f2d595766,,,,,,,,,,,,,,,,,,,,PF,,,,,,,,0,1.265265,,,,,,,,,,,,,,,,,,,,,,,,,,,,5,-42.39994036,107.1999707,1,0,0,response7disk,5,2.40001148,5.599993646,1,0,0,rectangle,2.40001148,5.599993646,1,0,0,6,3,"[276,72,302,31,133,244,183,293,113,316,307,62,258,282,86,262,160,103,130,243]",2.40001148,5.599993646,1,0,0,0,41,40,40,94,1,,,,,,,,,,,,,,,,,,,,,
,,,,,,,,,,,,,,,,,,,,,,,,,,,,,,,,,,,,,,,,,,,5d4857023c661b0001653a5d,5fb7070ae225251d0152f38e,2020-11-20_01h01.24.749,Colour_Similarity_Experiment,2020.1.2,Win32,60,5fb5945709dec70f2d595766,,,,,,,,,,,,,,,,,,,,FF,,,,,,,,7,1.15575,,,,,,,,,,,,,,,,,,,,,,,,,,,,8,44.0000121,115.1999709,1,0,0,response1disk,3,8.000011563,-4.000006497,1,0,0,rectangle,8.000011563,-4.000006497,1,0,0,6,3,"[276,72,302,31,133,244,183,293,113,316,307,62,258,282,86,262,160,103,130,243]",8.000011563,-4.000006497,1,0,0,0,42,41,41,154,1,,,,,,,,,,,,,,,,,,,,,
,,,,,,,,,,,,,,,,,,,,,,,,,,,,,,,,,,,,,,,,,,,5d4857023c661b0001653a5d,5fb7070ae225251d0152f38e,2020-11-20_01h01.24.749,Colour_Similarity_Experiment,2020.1.2,Win32,60,5fb5945709dec70f2d595766,,,,,,,,,,,,,,,,,,,,FF,,,,,,,,7,0.934725,,,,,,,,,,,,,,,,,,,,,,,,,,,,4,35.20001197,96.79999501,1,0,0,response1disk,1,-6.399939823,-3.200006485,1,0,0,rectangle,-6.399939823,-3.200006485,1,0,0,6,6,"[276,72,302,31,133,244,183,293,113,316,307,62,258,282,86,262,160,103,130,243]",-6.399939823,-3.200006485,1,0,0,0,43,42,42,102,1,,,,,,,,,,,,,,,,,,,,,
,,,,,,,,,,,,,,,,,,,,,,,,,,,,,,,,,,,,,,,,,,,5d4857023c661b0001653a5d,5fb7070ae225251d0152f38e,2020-11-20_01h01.24.749,Colour_Similarity_Experiment,2020.1.2,Win32,60,5fb5945709dec70f2d595766,,,,,,,,,,,,,,,,,,,,PF,,,,,,,,7,2.165835,,,,,,,,,,,,,,,,,,,,,,,,,,,,6,42.40001208,112.7999952,1,0,0,response1disk,4,-6.399939823,-5.600006521,1,0,0,rectangle,-6.399939823,-5.600006521,1,0,0,6,6,"[276,72,302,31,133,244,183,293,113,316,307,62,258,282,86,262,160,103,130,243]",-6.399939823,-5.600006521,1,0,0,0,44,43,43,33,1,,,,,,,,,,,,,,,,,,,,,
,,,,,,,,,,,,,,,,,,,,,,,,,,,,,,,,,,,,,,,,,,,5d4857023c661b0001653a5d,5fb7070ae225251d0152f38e,2020-11-20_01h01.24.749,Colour_Similarity_Experiment,2020.1.2,Win32,60,5fb5945709dec70f2d595766,,,,,,,,,,,,,,,,,,,,FF,,,,,,,,7,2.962335,,,,,,,,,,,,,,,,,,,,,,,,,,,,2,43.20001209,99.19997063,1,0,0,response1disk,7,5.600060356,-0.800006449,1,0,0,rectangle,5.600060356,-0.800006449,1,0,0,6,5,"[276,72,302,31,133,244,183,293,113,316,307,62,258,282,86,262,160,103,130,243]",5.600060356,-0.800006449,1,0,0,0,45,44,44,63,1,,,,,,,,,,,,,,,,,,,,,
,,,,,,,,,,,,,,,,,,,,,,,,,,,,,,,,,,,,,,,,,,,5d4857023c661b0001653a5d,5fb7070ae225251d0152f38e,2020-11-20_01h01.24.749,Colour_Similarity_Experiment,2020.1.2,Win32,60,5fb5945709dec70f2d595766,,,,,,,,,,,,,,,,,,,,PF,,,,,,,,7,1.44597,,,,,,,,,,,,,,,,,,,,,,,,,,,,8,39.20001203,98.39999503,1,0,0,response1disk,2,-13.59998876,-7.200006545,1,0,0,rectangle,-13.59998876,-7.200006545,1,0,0,6,2,"[276,72,302,31,133,244,183,293,113,316,307,62,258,282,86,262,160,103,130,243]",-13.59998876,-7.200006545,1,0,0,0,46,45,45,83,1,,,,,,,,,,,,,,,,,,,,,
,,,,,,,,,,,,,,,,,,,,,,,,,,,,,,,,,,,,,,,,,,,5d4857023c661b0001653a5d,5fb7070ae225251d0152f38e,2020-11-20_01h01.24.749,Colour_Similarity_Experiment,2020.1.2,Win32,60,5fb5945709dec70f2d595766,,,,,,,,,,,,,,,,,,,,FF,,,,,,,,7,1.22496,,,,,,,,,,,,,,,,,,,,,,,,,,,,8,46.40001214,91.99999493,1,0,0,response1disk,5,7.200011551,-6.44E-06,1,0,0,rectangle,7.200011551,-6.44E-06,1,0,0,6,5,"[276,72,302,31,133,244,183,293,113,316,307,62,258,282,86,262,160,103,130,243]",7.200011551,-6.44E-06,1,0,0,0,47,46,46,152,1,,,,,,,,,,,,,,,,,,,,,
,,,,,,,,,,,,,,,,,,,,,,,,,,,,,,,,,,,,,,,,,,,5d4857023c661b0001653a5d,5fb7070ae225251d0152f38e,2020-11-20_01h01.24.749,Colour_Similarity_Experiment,2020.1.2,Win32,60,5fb5945709dec70f2d595766,,,,,,,,,,,,,,,,,,,,PF,,,,,,,,0,2.12707,,,,,,,,,,,,,,,,,,,,,,,,,,,,7,-40.79998916,106.3999951,1,0,0,response7disk,7,5.600060356,-0.800006449,1,0,0,rectangle,5.600060356,-0.800006449,1,0,0,6,7,"[276,72,302,31,133,244,183,293,113,316,307,62,258,282,86,262,160,103,130,243]",5.600060356,-0.800006449,1,0,0,0,48,47,47,51,1,,,,,,,,,,,,,,,,,,,,,
,,,,,,,,,,,,,,,,,,,,,,,,,,,,,,,,,,,,,,,,,,,5d4857023c661b0001653a5d,5fb7070ae225251d0152f38e,2020-11-20_01h01.24.749,Colour_Similarity_Experiment,2020.1.2,Win32,60,5fb5945709dec70f2d595766,,,,,,,,,,,,,,,,,,,,PF,,,,,,,,7,1.10629,,,,,,,,,,,,,,,,,,,,,,,,,,,,4,39.20001203,92.79999495,1,0,0,response1disk,9,-0.799988568,-8.000006557,1,0,0,rectangle,-0.799988568,-8.000006557,1,0,0,6,3,"[276,72,302,31,133,244,183,293,113,316,307,62,258,282,86,262,160,103,130,243]",-0.799988568,-8.000006557,1,0,0,0,49,48,48,75,1,,,,,,,,,,,,,,,,,,,,,
,,,,,,,,,,,,,,,,,,,,,,,,,,,,,,,,,,,,,,,,,,,5d4857023c661b0001653a5d,5fb7070ae225251d0152f38e,2020-11-20_01h01.24.749,Colour_Similarity_Experiment,2020.1.2,Win32,60,5fb5945709dec70f2d595766,,,,,,,,,,,,,,,,,,,,PF,,,,,,,,7,1.335565,,,,,,,,,,,,,,,,,,,,,,,,,,,,5,45.60006095,115.1999709,1,0,0,response1disk,6,-5.599988639,13.59999377,1,0,0,rectangle,-5.599988639,13.59999377,1,0,0,6,1,"[276,72,302,31,133,244,183,293,113,316,307,62,258,282,86,262,160,103,130,243]",-5.599988639,13.59999377,1,0,0,0,50,49,49,103,1,,,,,,,,,,,,,,,,,,,,,
,,,,,,,,,,,,,,,,,,,,,,,,,,,,,,,,,,,,,,,,,,,5d4857023c661b0001653a5d,5fb7070ae225251d0152f38e,2020-11-20_01h01.24.749,Colour_Similarity_Experiment,2020.1.2,Win32,60,5fb5945709dec70f2d595766,,,,,,,,,,,,,,,,,,,,PF,,,,,,,,7,0.778395,,,,,,,,,,,,,,,,,,,,,,,,,,,,9,40.00001204,95.19997057,1,0,0,response1disk,3,2.40001148,1.599993587,1,0,0,rectangle,2.40001148,1.599993587,1,0,0,6,2,"[276,72,302,31,133,244,183,293,113,316,307,62,258,282,86,262,160,103,130,243]",2.40001148,1.599993587,1,0,0,0,51,50,50,119,1,,,,,,,,,,,,,,,,,,,,,
,,,,,,,,,,,,,,,,,,,,,,,,,,,,,,,,,,,,,,,,,,,5d4857023c661b0001653a5d,5fb7070ae225251d0152f38e,2020-11-20_01h01.24.749,Colour_Similarity_Experiment,2020.1.2,Win32,60,5fb5945709dec70f2d595766,,,,,,,,,,,,,,,,,,,,PF,,,,,,,,7,0.790435,,,,,,,,,,,,,,,,,,,,,,,,,,,,1,46.40001214,106.3999951,1,0,0,response1disk,5,4.800011516,-0.800006449,1,0,0,rectangle,4.800011516,-0.800006449,1,0,0,6,6,"[276,72,302,31,133,244,183,293,113,316,307,62,258,282,86,262,160,103,130,243]",4.800011516,-0.800006449,1,0,0,0,52,51,51,28,1,,,,,,,,,,,,,,,,,,,,,
,,,,,,,,,,,,,,,,,,,,,,,,,,,,,,,,,,,,,,,,,,,5d4857023c661b0001653a5d,5fb7070ae225251d0152f38e,2020-11-20_01h01.24.749,Colour_Similarity_Experiment,2020.1.2,Win32,60,5fb5945709dec70f2d595766,,,,,,,,,,,,,,,,,,,,PF,,,,,,,,7,1.4356,,,,,,,,,,,,,,,,,,,,,,,,,,,,5,53.60001224,109.5999952,1,0,0,response1disk,7,-2.399939764,-13.60000664,1,0,0,rectangle,-2.399939764,-13.60000664,1,0,0,6,4,"[276,72,302,31,133,244,183,293,113,316,307,62,258,282,86,262,160,103,130,243]",-2.399939764,-13.60000664,1,0,0,0,53,52,52,146,1,,,,,,,,,,,,,,,,,,,,,
,,,,,,,,,,,,,,,,,,,,,,,,,,,,,,,,,,,,,,,,,,,5d4857023c661b0001653a5d,5fb7070ae225251d0152f38e,2020-11-20_01h01.24.749,Colour_Similarity_Experiment,2020.1.2,Win32,60,5fb5945709dec70f2d595766,,,,,,,,,,,,,,,,,,,,FF,,,,,,,,7,0.776765,,,,,,,,,,,,,,,,,,,,,,,,,,,,4,45.60006095,110.3999952,1,0,0,response1disk,8,-1.59998858,-12.80000663,1,0,0,rectangle,-1.59998858,-12.80000663,1,0,0,6,4,"[276,72,302,31,133,244,183,293,113,316,307,62,258,282,86,262,160,103,130,243]",-1.59998858,-12.80000663,1,0,0,0,54,53,53,35,1,,,,,,,,,,,,,,,,,,,,,
,,,,,,,,,,,,,,,,,,,,,,,,,,,,,,,,,,,,,,,,,,,5d4857023c661b0001653a5d,5fb7070ae225251d0152f38e,2020-11-20_01h01.24.749,Colour_Similarity_Experiment,2020.1.2,Win32,60,5fb5945709dec70f2d595766,,,,,,,,,,,,,,,,,,,,FF,,,,,,,,6,1.220085,,,,,,,,,,,,,,,,,,,,,,,,,,,,2,96.00001287,37.59999412,1,0,0,response1disk,1,-1.59998858,-2.400006473,1,0,0,rectangle,-1.59998858,-2.400006473,1,0,0,6,6,"[276,72,302,31,133,244,183,293,113,316,307,62,258,282,86,262,160,103,130,243]",-1.59998858,-2.400006473,1,0,0,0,55,54,54,85,1,,,,,,,,,,,,,,,,,,,,,
,,,,,,,,,,,,,,,,,,,,,,,,,,,,,,,,,,,,,,,,,,,5d4857023c661b0001653a5d,5fb7070ae225251d0152f38e,2020-11-20_01h01.24.749,Colour_Similarity_Experiment,2020.1.2,Win32,60,5fb5945709dec70f2d595766,,,,,,,,,,,,,,,,,,,,FF,,,,,,,,0,1.441785,,,,,,,,,,,,,,,,,,,,,,,,,,,,1,-42.39994036,107.9999952,1,0,0,response7disk,1,17.60006053,-7.200006545,1,0,0,rectangle,17.60006053,-7.200006545,1,0,0,6,1,"[276,72,302,31,133,244,183,293,113,316,307,62,258,282,86,262,160,103,130,243]",17.60006053,-7.200006545,1,0,0,0,56,55,55,151,1,,,,,,,,,,,,,,,,,,,,,
,,,,,,,,,,,,,,,,,,,,,,,,,,,,,,,,,,,,,,,,,,,5d4857023c661b0001653a5d,5fb7070ae225251d0152f38e,2020-11-20_01h01.24.749,Colour_Similarity_Experiment,2020.1.2,Win32,60,5fb5945709dec70f2d595766,,,,,,,,,,,,,,,,,,,,PF,,,,,,,,7,0.88586,,,,,,,,,,,,,,,,,,,,,,,,,,,,1,35.20001197,100.7999951,1,0,0,response1disk,3,-3.199988604,-6.400006533,1,0,0,rectangle,-3.199988604,-6.400006533,1,0,0,6,7,"[276,72,302,31,133,244,183,293,113,316,307,62,258,282,86,262,160,103,130,243]",-3.199988604,-6.400006533,1,0,0,0,57,56,56,1,1,,,,,,,,,,,,,,,,,,,,,
,,,,,,,,,,,,,,,,,,,,,,,,,,,,,,,,,,,,,,,,,,,5d4857023c661b0001653a5d,5fb7070ae225251d0152f38e,2020-11-20_01h01.24.749,Colour_Similarity_Experiment,2020.1.2,Win32,60,5fb5945709dec70f2d595766,,,,,,,,,,,,,,,,,,,,FF,,,,,,,,7,1.664065,,,,,,,,,,,,,,,,,,,,,,,,,,,,2,41.60006089,101.5999951,1,0,0,response1disk,3,5.600060356,-6.44E-06,1,0,0,rectangle,5.600060356,-6.44E-06,1,0,0,6,2,"[276,72,302,31,133,244,183,293,113,316,307,62,258,282,86,262,160,103,130,243]",5.600060356,-6.44E-06,1,0,0,0,58,57,57,104,1,,,,,,,,,,,,,,,,,,,,,
,,,,,,,,,,,,,,,,,,,,,,,,,,,,,,,,,,,,,,,,,,,5d4857023c661b0001653a5d,5fb7070ae225251d0152f38e,2020-11-20_01h01.24.749,Colour_Similarity_Experiment,2020.1.2,Win32,60,5fb5945709dec70f2d595766,,,,,,,,,,,,,,,,,,,,PF,,,,,,,,7,2.043195,,,,,,,,,,,,,,,,,,,,,,,,,,,,6,52.00001222,117.5999953,1,0,0,response1disk,8,4.800011516,11.19999373,1,0,0,rectangle,4.800011516,11.19999373,1,0,0,6,2,"[276,72,302,31,133,244,183,293,113,316,307,62,258,282,86,262,160,103,130,243]",4.800011516,11.19999373,1,0,0,0,59,58,58,64,1,,,,,,,,,,,,,,,,,,,,,
,,,,,,,,,,,,,,,,,,,,,,,,,,,,,,,,,,,,,,,,,,,5d4857023c661b0001653a5d,5fb7070ae225251d0152f38e,2020-11-20_01h01.24.749,Colour_Similarity_Experiment,2020.1.2,Win32,60,5fb5945709dec70f2d595766,,,,,,,,,,,,,,,,,,,,PF,,,,,,,,7,1.14874,,,,,,,,,,,,,,,,,,,,,,,,,,,,6,44.0000121,102.3999951,1,0,0,response1disk,2,-3.199988604,10.39999372,1,0,0,rectangle,-3.199988604,10.39999372,1,0,0,6,2,"[276,72,302,31,133,244,183,293,113,316,307,62,258,282,86,262,160,103,130,243]",-3.199988604,10.39999372,1,0,0,0,60,59,59,130,1,,,,,,,,,,,,,,,,,,,,,
,,,,,,,,,,,,,,,,,,,,,,,,,,,,,,,,,,,,,,,,,,,5d4857023c661b0001653a5d,5fb7070ae225251d0152f38e,2020-11-20_01h01.24.749,Colour_Similarity_Experiment,2020.1.2,Win32,60,5fb5945709dec70f2d595766,,,,,,,,,,,,,,,,,,,,PF,,,,,,,,7,1.150395,,,,,,,,,,,,,,,,,,,,,,,,,,,,1,52.00001222,114.3999953,1,0,0,response1disk,8,8.000011563,9.599993706,1,0,0,rectangle,8.000011563,9.599993706,1,0,0,6,4,"[276,72,302,31,133,244,183,293,113,316,307,62,258,282,86,262,160,103,130,243]",8.000011563,9.599993706,1,0,0,0,61,60,60,65,1,,,,,,,,,,,,,,,,,,,,,
,,,,,,,,,,,,,,,,,,,,,,,,,,,,,,,,,,,,,,,,,,,5d4857023c661b0001653a5d,5fb7070ae225251d0152f38e,2020-11-20_01h01.24.749,Colour_Similarity_Experiment,2020.1.2,Win32,60,5fb5945709dec70f2d595766,,,,,,,,,,,,,,,,,,,,PF,,,,,,,,0,1.117815,,,,,,,,,,,,,,,,,,,,,,,,,,,,2,-51.19998932,103.9999951,1,0,0,response7disk,2,11.20001161,-9.60000658,1,0,0,rectangle,108.8000131,39.99999416,1,0,0,6,6,"[276,72,302,31,133,244,183,293,113,316,307,62,258,282,86,262,160,103,130,243]",-0.799988568,-2.400006473,1,0,0,0,62,61,61,14,1,response1disk_3,rectangle,,,,,,,,,,,,,,,,,,,
,,,,,,,,,,,,,,,,,,,,,,,,,,,,,,,,,,,,,,,,,,,5d4857023c661b0001653a5d,5fb7070ae225251d0152f38e,2020-11-20_01h01.24.749,Colour_Similarity_Experiment,2020.1.2,Win32,60,5fb5945709dec70f2d595766,,,,,,,,,,,,,,,,,,,,PF,,,,,,,,7,5.541235,,,,,,,,,,,,,,,,,,,,,,,,,,,,9,51.20001221,98.39999503,1,0,0,response1disk,2,-0.799988568,1.599993587,1,0,0,rectangle,-0.799988568,1.599993587,1,0,0,6,6,"[276,72,302,31,133,244,183,293,113,316,307,62,258,282,86,262,160,103,130,243]",-0.799988568,1.599993587,1,0,0,0,63,62,62,157,1,,,,,,,,,,,,,,,,,,,,,
,,,,,,,,,,,,,,,,,,,,,,,,,,,,,,,,,,,,,,,,,,,5d4857023c661b0001653a5d,5fb7070ae225251d0152f38e,2020-11-20_01h01.24.749,Colour_Similarity_Experiment,2020.1.2,Win32,60,5fb5945709dec70f2d595766,,,,,,,,,,,,,,,,,,,,PF,,,,,,,,7,1.027185,,,,,,,,,,,,,,,,,,,,,,,,,,,,8,40.80001205,103.1999707,1,0,0,response1disk,7,-5.599988639,5.599993646,1,0,0,rectangle,-5.599988639,5.599993646,1,0,0,6,0,"[276,72,302,31,133,244,183,293,113,316,307,62,258,282,86,262,160,103,130,243]",-5.599988639,5.599993646,1,0,0,0,64,63,63,23,1,,,,,,,,,,,,,,,,,,,,,
,,,,,,,,,,,,,,,,,,,,,,,,,,,,,,,,,,,,,,,,,,,5d4857023c661b0001653a5d,5fb7070ae225251d0152f38e,2020-11-20_01h01.24.749,Colour_Similarity_Experiment,2020.1.2,Win32,60,5fb5945709dec70f2d595766,,,,,,,,,,,,,,,,,,,,PF,,,,,,,,7,0.928995,,,,,,,,,,,,,,,,,,,,,,,,,,,,8,48.80001217,87.19997045,1,0,0,response1disk,5,-13.59998876,1.599993587,1,0,0,rectangle,-13.59998876,1.599993587,1,0,0,6,7,"[276,72,302,31,133,244,183,293,113,316,307,62,258,282,86,262,160,103,130,243]",-13.59998876,1.599993587,1,0,0,0,65,64,64,98,1,,,,,,,,,,,,,,,,,,,,,
,,,,,,,,,,,,,,,,,,,,,,,,,,,,,,,,,,,,,,,,,,,5d4857023c661b0001653a5d,5fb7070ae225251d0152f38e,2020-11-20_01h01.24.749,Colour_Similarity_Experiment,2020.1.2,Win32,60,5fb5945709dec70f2d595766,,,,,,,,,,,,,,,,,,,,FF,,,,,,,,7,1.047265,,,,,,,,,,,,,,,,,,,,,,,,,,,,9,28.00001186,95.99999499,1,0,0,response1disk,2,-11.19998872,7.19999367,1,0,0,rectangle,-11.19998872,7.19999367,1,0,0,6,0,"[276,72,302,31,133,244,183,293,113,316,307,62,258,282,86,262,160,103,130,243]",-11.19998872,7.19999367,1,0,0,0,66,65,65,11,1,,,,,,,,,,,,,,,,,,,,,
,,,,,,,,,,,,,,,,,,,,,,,,,,,,,,,,,,,,,,,,,,,5d4857023c661b0001653a5d,5fb7070ae225251d0152f38e,2020-11-20_01h01.24.749,Colour_Similarity_Experiment,2020.1.2,Win32,60,5fb5945709dec70f2d595766,,,,,,,,,,,,,,,,,,,,PF,,,,,,,,7,1.43808,,,,,,,,,,,,,,,,,,,,,,,,,,,,9,56.80001229,91.99999493,1,0,0,response1disk,4,1.14E-05,7.999993682,1,0,0,rectangle,1.14E-05,7.999993682,1,0,0,6,7,"[276,72,302,31,133,244,183,293,113,316,307,62,258,282,86,262,160,103,130,243]",1.14E-05,7.999993682,1,0,0,0,67,66,66,114,1,,,,,,,,,,,,,,,,,,,,,
,,,,,,,,,,,,,,,,,,,,,,,,,,,,,,,,,,,,,,,,,,,5d4857023c661b0001653a5d,5fb7070ae225251d0152f38e,2020-11-20_01h01.24.749,Colour_Similarity_Experiment,2020.1.2,Win32,60,5fb5945709dec70f2d595766,,,,,,,,,,,,,,,,,,,,PF,,,,,,,,7,0.79772,,,,,,,,,,,,,,,,,,,,,,,,,,,,7,42.40001208,96.79999501,1,0,0,response1disk,4,-3.199988604,8.799993694,1,0,0,rectangle,-3.199988604,8.799993694,1,0,0,6,7,"[276,72,302,31,133,244,183,293,113,316,307,62,258,282,86,262,160,103,130,243]",-3.199988604,8.799993694,1,0,0,0,68,67,67,43,1,,,,,,,,,,,,,,,,,,,,,
,,,,,,,,,,,,,,,,,,,,,,,,,,,,,,,,,,,,,,,,,,,5d4857023c661b0001653a5d,5fb7070ae225251d0152f38e,2020-11-20_01h01.24.749,Colour_Similarity_Experiment,2020.1.2,Win32,60,5fb5945709dec70f2d595766,,,,,,,,,,,,,,,,,,,,FF,,,,,,,,7,1.255195,,,,,,,,,,,,,,,,,,,,,,,,,,,,8,48.00001216,97.59999502,1,0,0,response1disk,2,1.14E-05,6.399993658,1,0,0,rectangle,1.14E-05,6.399993658,1,0,0,6,0,"[276,72,302,31,133,244,183,293,113,316,307,62,258,282,86,262,160,103,130,243]",1.14E-05,6.399993658,1,0,0,0,69,68,68,22,1,,,,,,,,,,,,,,,,,,,,,
,,,,,,,,,,,,,,,,,,,,,,,,,,,,,,,,,,,,,,,,,,,5d4857023c661b0001653a5d,5fb7070ae225251d0152f38e,2020-11-20_01h01.24.749,Colour_Similarity_Experiment,2020.1.2,Win32,60,5fb5945709dec70f2d595766,,,,,,,,,,,,,,,,,,,,FF,,,,,,,,7,1.260875,,,,,,,,,,,,,,,,,,,,,,,,,,,,9,50.4000122,106.3999951,1,0,0,response1disk,7,-4.799988627,4.799993634,1,0,0,rectangle,-4.799988627,4.799993634,1,0,0,6,1,"[276,72,302,31,133,244,183,293,113,316,307,62,258,282,86,262,160,103,130,243]",-4.799988627,4.799993634,1,0,0,0,70,69,69,100,1,,,,,,,,,,,,,,,,,,,,,
,,,,,,,,,,,,,,,,,,,,,,,,,,,,,,,,,,,,,,,,,,,5d4857023c661b0001653a5d,5fb7070ae225251d0152f38e,2020-11-20_01h01.24.749,Colour_Similarity_Experiment,2020.1.2,Win32,60,5fb5945709dec70f2d595766,,,,,,,,,,,,,,,,,,,,FF,,,,,,,,0,1.13566,,,,,,,,,,,,,,,,,,,,,,,,,,,,2,-45.59998924,105.5999951,1,0,0,response7disk,2,10.4000116,-12.00000662,1,0,0,rectangle,10.4000116,-12.00000662,1,0,0,6,7,"[276,72,302,31,133,244,183,293,113,316,307,62,258,282,86,262,160,103,130,243]",10.4000116,-12.00000662,1,0,0,0,71,70,70,142,1,,,,,,,,,,,,,,,,,,,,,
,,,,,,,,,,,,,,,,,,,,,,,,,,,,,,,,,,,,,,,,,,,5d4857023c661b0001653a5d,5fb7070ae225251d0152f38e,2020-11-20_01h01.24.749,Colour_Similarity_Experiment,2020.1.2,Win32,60,5fb5945709dec70f2d595766,,,,,,,,,,,,,,,,,,,,PF,,,,,,,,7,1.21085,,,,,,,,,,,,,,,,,,,,,,,,,,,,2,48.80001217,110.3999952,1,0,0,response1disk,6,4.800011516,3.999993622,1,0,0,rectangle,-47.19998926,-112.8000081,1,0,0,3,3,"[276,72,302,31,133,244,183,293,113,316,307,62,258,282,86,262,160,103,130,243]",-10.39993988,3.999993622,1,0,0,0,72,71,71,113,1,response5disk_3,rectangle,,,,,,,,,,,,,,,,,,,
,,,,,,,,,,,,,,,,,,,,,,,,,,,,,,,,,,,,,,,,,,,5d4857023c661b0001653a5d,5fb7070ae225251d0152f38e,2020-11-20_01h01.24.749,Colour_Similarity_Experiment,2020.1.2,Win32,60,5fb5945709dec70f2d595766,,,,,,,,,,,,,,,,,,,,FF,,,,,,,,0,1.017305,,,,,,,,,,,,,,,,,,,,,,,,,,,,6,-42.39994036,103.1999707,1,0,0,response7disk,6,-5.599988639,8.799993694,1,0,0,rectangle,-5.599988639,8.799993694,1,0,0,3,3,"[276,72,302,31,133,244,183,293,113,316,307,62,258,282,86,262,160,103,130,243]",-5.599988639,8.799993694,1,0,0,0,73,72,72,91,1,,,,,,,,,,,,,,,,,,,,,
,,,,,,,,,,,,,,,,,,,,,,,,,,,,,,,,,,,,,,,,,,,5d4857023c661b0001653a5d,5fb7070ae225251d0152f38e,2020-11-20_01h01.24.749,Colour_Similarity_Experiment,2020.1.2,Win32,60,5fb5945709dec70f2d595766,,,,,,,,,,,,,,,,,,,,FF,,,,,,,,7,1.001705,,,,,,,,,,,,,,,,,,,,,,,,,,,,6,53.60001224,103.1999707,1,0,0,response1disk,4,-1.59998858,3.19999361,1,0,0,rectangle,-1.59998858,3.19999361,1,0,0,3,1,"[276,72,302,31,133,244,183,293,113,316,307,62,258,282,86,262,160,103,130,243]",-1.59998858,3.19999361,1,0,0,0,74,73,73,56,1,,,,,,,,,,,,,,,,,,,,,
,,,,,,,,,,,,,,,,,,,,,,,,,,,,,,,,,,,,,,,,,,,5d4857023c661b0001653a5d,5fb7070ae225251d0152f38e,2020-11-20_01h01.24.749,Colour_Similarity_Experiment,2020.1.2,Win32,60,5fb5945709dec70f2d595766,,,,,,,,,,,,,,,,,,,,PF,,,,,,,,5,2.116255,,,,,,,,,,,,,,,,,,,,,,,,,,,,6,73.60001254,-41.60000706,1,0,0,response3disk,5,-2.399939764,-3.200006485,1,0,0,rectangle,-2.399939764,-3.200006485,1,0,0,3,3,"[276,72,302,31,133,244,183,293,113,316,307,62,258,282,86,262,160,103,130,243]",-2.399939764,-3.200006485,1,0,0,0,75,74,74,59,1,,,,,,,,,,,,,,,,,,,,,
,,,,,,,,,,,,,,,,,,,,,,,,,,,,,,,,,,,,,,,,,,,5d4857023c661b0001653a5d,5fb7070ae225251d0152f38e,2020-11-20_01h01.24.749,Colour_Similarity_Experiment,2020.1.2,Win32,60,5fb5945709dec70f2d595766,,,,,,,,,,,,,,,,,,,,FF,,,,,,,,3,1.90013,,,,,,,,,,,,,,,,,,,,,,,,,,,,4,-37.59998912,-110.4000081,1,0,0,response5disk,3,-1.59998858,-6.44E-06,1,0,0,rectangle,-1.59998858,-6.44E-06,1,0,0,3,1,"[276,72,302,31,133,244,183,293,113,316,307,62,258,282,86,262,160,103,130,243]",-1.59998858,-6.44E-06,1,0,0,0,76,75,75,77,1,,,,,,,,,,,,,,,,,,,,,
,,,,,,,,,,,,,,,,,,,,,,,,,,,,,,,,,,,,,,,,,,,5d4857023c661b0001653a5d,5fb7070ae225251d0152f38e,2020-11-20_01h01.24.749,Colour_Similarity_Experiment,2020.1.2,Win32,60,5fb5945709dec70f2d595766,,,,,,,,,,,,,,,,,,,,FF,,,,,,,,7,1.1213,,,,,,,,,,,,,,,,,,,,,,,,,,,,4,42.40001208,101.5999951,1,0,0,response1disk,7,-2.399939764,1.599993587,1,0,0,rectangle,-2.399939764,1.599993587,1,0,0,3,2,"[276,72,302,31,133,244,183,293,113,316,307,62,258,282,86,262,160,103,130,243]",-2.399939764,1.599993587,1,0,0,0,77,76,76,87,1,,,,,,,,,,,,,,,,,,,,,
,,,,,,,,,,,,,,,,,,,,,,,,,,,,,,,,,,,,,,,,,,,5d4857023c661b0001653a5d,5fb7070ae225251d0152f38e,2020-11-20_01h01.24.749,Colour_Similarity_Experiment,2020.1.2,Win32,60,5fb5945709dec70f2d595766,,,,,,,,,,,,,,,,,,,,PF,,,,,,,,7,1.11418,,,,,,,,,,,,,,,,,,,,,,,,,,,,4,38.40001202,91.99999493,1,0,0,response1disk,2,-1.59998858,-0.800006449,1,0,0,rectangle,-1.59998858,-0.800006449,1,0,0,3,2,"[276,72,302,31,133,244,183,293,113,316,307,62,258,282,86,262,160,103,130,243]",-1.59998858,-0.800006449,1,0,0,0,78,77,77,108,1,,,,,,,,,,,,,,,,,,,,,
,,,,,,,,,,,,,,,,,,,,,,,,,,,,,,,,,,,,,,,,,,,5d4857023c661b0001653a5d,5fb7070ae225251d0152f38e,2020-11-20_01h01.24.749,Colour_Similarity_Experiment,2020.1.2,Win32,60,5fb5945709dec70f2d595766,,,,,,,,,,,,,,,,,,,,PF,,,,,,,,7,1.22033,,,,,,,,,,,,,,,,,,,,,,,,,,,,6,37.60006083,103.9999951,1,0,0,response1disk,9,-4.799988627,-4.800006509,1,0,0,rectangle,-4.799988627,-4.800006509,1,0,0,3,4,"[276,72,302,31,133,244,183,293,113,316,307,62,258,282,86,262,160,103,130,243]",-4.799988627,-4.800006509,1,0,0,0,79,78,78,45,1,,,,,,,,,,,,,,,,,,,,,
,,,,,,,,,,,,,,,,,,,,,,,,,,,,,,,,,,,,,,,,,,,5d4857023c661b0001653a5d,5fb7070ae225251d0152f38e,2020-11-20_01h01.24.749,Colour_Similarity_Experiment,2020.1.2,Win32,60,5fb5945709dec70f2d595766,,,,,,,,,,,,,,,,,,,,FF,,,,,,,,7,1.221745,,,,,,,,,,,,,,,,,,,,,,,,,,,,5,47.20001215,103.1999707,1,0,0,response1disk,9,12.00001162,8.799993694,1,0,0,rectangle,12.00001162,8.799993694,1,0,0,3,3,"[276,72,302,31,133,244,183,293,113,316,307,62,258,282,86,262,160,103,130,243]",12.00001162,8.799993694,1,0,0,0,80,79,79,61,1,,,,,,,,,,,,,,,,,,,,,
,,,,,,,,,,,,,,,,,,,,,,,,,,,,,,,,,,,,,,,,,,,5d4857023c661b0001653a5d,5fb7070ae225251d0152f38e,2020-11-20_01h01.24.749,Colour_Similarity_Experiment,2020.1.2,Win32,60,5fb5945709dec70f2d595766,,,,,,,,,,,,,,,,,,,,FF,,,,,,,,7,1.44496,,,,,,,,,,,,,,,,,,,,,,,,,,,,3,40.80001205,105.5999951,1,0,0,response1disk,2,-2.399939764,3.19999361,1,0,0,rectangle,-2.399939764,3.19999361,1,0,0,3,5,"[276,72,302,31,133,244,183,293,113,316,307,62,258,282,86,262,160,103,130,243]",-2.399939764,3.19999361,1,0,0,0,81,80,80,93,1,,,,,,,,,,,,,,,,,,,,,
,,,,,,,,,,,,,,,,,,,,,,,,,,,,,,,,,,,,,,,,,,,5d4857023c661b0001653a5d,5fb7070ae225251d0152f38e,2020-11-20_01h01.24.749,Colour_Similarity_Experiment,2020.1.2,Win32,60,5fb5945709dec70f2d595766,,,,,,,,,,,,,,,,,,,,PF,,,,,,,,4,2.337335,,,,,,,,,,,,,,,,,,,,,,,,,,,,7,52.00001222,-100.0000079,1,0,0,response3disk,5,22.40001178,11.19999373,1,0,0,rectangle,22.40001178,11.19999373,1,0,0,3,0,"[276,72,302,31,133,244,183,293,113,316,307,62,258,282,86,262,160,103,130,243]",22.40001178,11.19999373,1,0,0,0,82,81,81,92,1,,,,,,,,,,,,,,,,,,,,,
,,,,,,,,,,,,,,,,,,,,,,,,,,,,,,,,,,,,,,,,,,,5d4857023c661b0001653a5d,5fb7070ae225251d0152f38e,2020-11-20_01h01.24.749,Colour_Similarity_Experiment,2020.1.2,Win32,60,5fb5945709dec70f2d595766,,,,,,,,,,,,,,,,,,,,PF,,,,,,,,7,0.999215,,,,,,,,,,,,,,,,,,,,,,,,,,,,3,48.00001216,107.9999952,1,0,0,response1disk,6,-2.399939764,-8.800006568,1,0,0,rectangle,-2.399939764,-8.800006568,1,0,0,3,6,"[276,72,302,31,133,244,183,293,113,316,307,62,258,282,86,262,160,103,130,243]",-2.399939764,-8.800006568,1,0,0,0,83,82,82,47,1,,,,,,,,,,,,,,,,,,,,,
,,,,,,,,,,,,,,,,,,,,,,,,,,,,,,,,,,,,,,,,,,,5d4857023c661b0001653a5d,5fb7070ae225251d0152f38e,2020-11-20_01h01.24.749,Colour_Similarity_Experiment,2020.1.2,Win32,60,5fb5945709dec70f2d595766,,,,,,,,,,,,,,,,,,,,PF,,,,,,,,0,1.23683,,,,,,,,,,,,,,,,,,,,,,,,,,,,9,-54.39994054,99.99999505,1,0,0,response7disk,9,-6.399939823,-5.600006521,1,0,0,rectangle,-6.399939823,-5.600006521,1,0,0,3,5,"[276,72,302,31,133,244,183,293,113,316,307,62,258,282,86,262,160,103,130,243]",-6.399939823,-5.600006521,1,0,0,0,84,83,83,106,1,,,,,,,,,,,,,,,,,,,,,
,,,,,,,,,,,,,,,,,,,,,,,,,,,,,,,,,,,,,,,,,,,5d4857023c661b0001653a5d,5fb7070ae225251d0152f38e,2020-11-20_01h01.24.749,Colour_Similarity_Experiment,2020.1.2,Win32,60,5fb5945709dec70f2d595766,,,,,,,,,,,,,,,,,,,,PF,,,,,,,,7,1.110035,,,,,,,,,,,,,,,,,,,,,,,,,,,,9,59.20001233,122.3999954,1,0,0,response1disk,5,-4.799988627,-6.44E-06,1,0,0,rectangle,-4.799988627,-6.44E-06,1,0,0,3,5,"[276,72,302,31,133,244,183,293,113,316,307,62,258,282,86,262,160,103,130,243]",-4.799988627,-6.44E-06,1,0,0,0,85,84,84,134,1,,,,,,,,,,,,,,,,,,,,,
,,,,,,,,,,,,,,,,,,,,,,,,,,,,,,,,,,,,,,,,,,,5d4857023c661b0001653a5d,5fb7070ae225251d0152f38e,2020-11-20_01h01.24.749,Colour_Similarity_Experiment,2020.1.2,Win32,60,5fb5945709dec70f2d595766,,,,,,,,,,,,,,,,,,,,PF,,,,,,,,7,4.852015,,,,,,,,,,,,,,,,,,,,,,,,,,,,2,40.80001205,105.5999951,1,0,0,response1disk,8,12.00001162,16.79999381,1,0,0,rectangle,90.40001279,-37.600007,1,0,0,5,5,"[276,72,302,31,133,244,183,293,113,316,307,62,258,282,86,262,160,103,130,243]",-5.599988639,-8.800006568,1,0,0,0,86,85,85,52,1,response3disk_3,rectangle,,,,,,,,,,,,,,,,,,,
,,,,,,,,,,,,,,,,,,,,,,,,,,,,,,,,,,,,,,,,,,,5d4857023c661b0001653a5d,5fb7070ae225251d0152f38e,2020-11-20_01h01.24.749,Colour_Similarity_Experiment,2020.1.2,Win32,60,5fb5945709dec70f2d595766,,,,,,,,,,,,,,,,,,,,PF,,,,,,,,7,2.07171,,,,,,,,,,,,,,,,,,,,,,,,,,,,4,27.20001185,103.9999951,1,0,0,response1disk,8,1.600060296,2.399993598,1,0,0,rectangle,1.600060296,2.399993598,1,0,0,5,7,"[276,72,302,31,133,244,183,293,113,316,307,62,258,282,86,262,160,103,130,243]",1.600060296,2.399993598,1,0,0,0,87,86,86,124,1,,,,,,,,,,,,,,,,,,,,,
,,,,,,,,,,,,,,,,,,,,,,,,,,,,,,,,,,,,,,,,,,,5d4857023c661b0001653a5d,5fb7070ae225251d0152f38e,2020-11-20_01h01.24.749,Colour_Similarity_Experiment,2020.1.2,Win32,60,5fb5945709dec70f2d595766,,,,,,,,,,,,,,,,,,,,FF,,,,,,,,5,1.62037,,,,,,,,,,,,,,,,,,,,,,,,,,,,3,84.80001271,-46.40000713,1,0,0,response3disk,5,-0.799988568,3.19999361,1,0,0,rectangle,-0.799988568,3.19999361,1,0,0,5,2,"[276,72,302,31,133,244,183,293,113,316,307,62,258,282,86,262,160,103,130,243]",-0.799988568,3.19999361,1,0,0,0,88,87,87,101,1,,,,,,,,,,,,,,,,,,,,,
,,,,,,,,,,,,,,,,,,,,,,,,,,,,,,,,,,,,,,,,,,,5d4857023c661b0001653a5d,5fb7070ae225251d0152f38e,2020-11-20_01h01.24.749,Colour_Similarity_Experiment,2020.1.2,Win32,60,5fb5945709dec70f2d595766,,,,,,,,,,,,,,,,,,,,FF,,,,,,,,0,1.122525,,,,,,,,,,,,,,,,,,,,,,,,,,,,8,-47.19998926,102.3999951,1,0,0,response7disk,8,-1.59998858,9.599993706,1,0,0,rectangle,-1.59998858,9.599993706,1,0,0,5,4,"[276,72,302,31,133,244,183,293,113,316,307,62,258,282,86,262,160,103,130,243]",-1.59998858,9.599993706,1,0,0,0,89,88,88,48,1,,,,,,,,,,,,,,,,,,,,,
,,,,,,,,,,,,,,,,,,,,,,,,,,,,,,,,,,,,,,,,,,,5d4857023c661b0001653a5d,5fb7070ae225251d0152f38e,2020-11-20_01h01.24.749,Colour_Similarity_Experiment,2020.1.2,Win32,60,5fb5945709dec70f2d595766,,,,,,,,,,,,,,,,,,,,PF,,,,,,,,7,0.790915,,,,,,,,,,,,,,,,,,,,,,,,,,,,3,32.00001192,99.99999505,1,0,0,response1disk,1,-15.99998879,-8.800006568,1,0,0,rectangle,-15.99998879,-8.800006568,1,0,0,5,4,"[276,72,302,31,133,244,183,293,113,316,307,62,258,282,86,262,160,103,130,243]",-15.99998879,-8.800006568,1,0,0,0,90,89,89,96,1,,,,,,,,,,,,,,,,,,,,,
,,,,,,,,,,,,,,,,,,,,,,,,,,,,,,,,,,,,,,,,,,,5d4857023c661b0001653a5d,5fb7070ae225251d0152f38e,2020-11-20_01h01.24.749,Colour_Similarity_Experiment,2020.1.2,Win32,60,5fb5945709dec70f2d595766,,,,,,,,,,,,,,,,,,,,PF,,,,,,,,7,1.347555,,,,,,,,,,,,,,,,,,,,,,,,,,,,3,52.80001223,109.5999952,1,0,0,response1disk,7,7.200011551,5.599993646,1,0,0,rectangle,7.200011551,5.599993646,1,0,0,5,6,"[276,72,302,31,133,244,183,293,113,316,307,62,258,282,86,262,160,103,130,243]",7.200011551,5.599993646,1,0,0,0,91,90,90,41,1,,,,,,,,,,,,,,,,,,,,,
,,,,,,,,,,,,,,,,,,,,,,,,,,,,,,,,,,,,,,,,,,,5d4857023c661b0001653a5d,5fb7070ae225251d0152f38e,2020-11-20_01h01.24.749,Colour_Similarity_Experiment,2020.1.2,Win32,60,5fb5945709dec70f2d595766,,,,,,,,,,,,,,,,,,,,PF,,,,,,,,7,1.7669,,,,,,,,,,,,,,,,,,,,,,,,,,,,6,48.00001216,109.5999952,1,0,0,response1disk,3,2.40001148,4.799993634,1,0,0,rectangle,2.40001148,4.799993634,1,0,0,5,0,"[276,72,302,31,133,244,183,293,113,316,307,62,258,282,86,262,160,103,130,243]",2.40001148,4.799993634,1,0,0,0,92,91,91,26,1,,,,,,,,,,,,,,,,,,,,,
,,,,,,,,,,,,,,,,,,,,,,,,,,,,,,,,,,,,,,,,,,,5d4857023c661b0001653a5d,5fb7070ae225251d0152f38e,2020-11-20_01h01.24.749,Colour_Similarity_Experiment,2020.1.2,Win32,60,5fb5945709dec70f2d595766,,,,,,,,,,,,,,,,,,,,PF,,,,,,,,7,0.789635,,,,,,,,,,,,,,,,,,,,,,,,,,,,7,33.60006077,90.39999491,1,0,0,response1disk,1,0.800011456,-6.44E-06,1,0,0,rectangle,0.800011456,-6.44E-06,1,0,0,5,6,"[276,72,302,31,133,244,183,293,113,316,307,62,258,282,86,262,160,103,130,243]",0.800011456,-6.44E-06,1,0,0,0,93,92,92,53,1,,,,,,,,,,,,,,,,,,,,,
,,,,,,,,,,,,,,,,,,,,,,,,,,,,,,,,,,,,,,,,,,,5d4857023c661b0001653a5d,5fb7070ae225251d0152f38e,2020-11-20_01h01.24.749,Colour_Similarity_Experiment,2020.1.2,Win32,60,5fb5945709dec70f2d595766,,,,,,,,,,,,,,,,,,,,FF,,,,,,,,6,2.248375,,,,,,,,,,,,,,,,,,,,,,,,,,,,5,98.40001291,31.99999404,1,0,0,response1disk,7,-7.999988675,-5.600006521,1,0,0,rectangle,-7.999988675,-5.600006521,1,0,0,5,0,"[276,72,302,31,133,244,183,293,113,316,307,62,258,282,86,262,160,103,130,243]",-7.999988675,-5.600006521,1,0,0,0,94,93,93,7,1,,,,,,,,,,,,,,,,,,,,,
,,,,,,,,,,,,,,,,,,,,,,,,,,,,,,,,,,,,,,,,,,,5d4857023c661b0001653a5d,5fb7070ae225251d0152f38e,2020-11-20_01h01.24.749,Colour_Similarity_Experiment,2020.1.2,Win32,60,5fb5945709dec70f2d595766,,,,,,,,,,,,,,,,,,,,PF,,,,,,,,7,0.788475,,,,,,,,,,,,,,,,,,,,,,,,,,,,6,47.20001215,100.7999951,1,0,0,response1disk,1,1.14E-05,1.599993587,1,0,0,rectangle,1.14E-05,1.599993587,1,0,0,5,4,"[276,72,302,31,133,244,183,293,113,316,307,62,258,282,86,262,160,103,130,243]",1.14E-05,1.599993587,1,0,0,0,95,94,94,46,1,,,,,,,,,,,,,,,,,,,,,
,,,,,,,,,,,,,,,,,,,,,,,,,,,,,,,,,,,,,,,,,,,5d4857023c661b0001653a5d,5fb7070ae225251d0152f38e,2020-11-20_01h01.24.749,Colour_Similarity_Experiment,2020.1.2,Win32,60,5fb5945709dec70f2d595766,,,,,,,,,,,,,,,,,,,,FF,,,,,,,,7,0.79218,,,,,,,,,,,,,,,,,,,,,,,,,,,,9,47.20001215,101.5999951,1,0,0,response1disk,8,1.14E-05,-6.44E-06,1,0,0,rectangle,1.14E-05,-6.44E-06,1,0,0,5,5,"[276,72,302,31,133,244,183,293,113,316,307,62,258,282,86,262,160,103,130,243]",1.14E-05,-6.44E-06,1,0,0,0,96,95,95,6,1,,,,,,,,,,,,,,,,,,,,,
,,,,,,,,,,,,,,,,,,,,,,,,,,,,,,,,,,,,,,,,,,,5d4857023c661b0001653a5d,5fb7070ae225251d0152f38e,2020-11-20_01h01.24.749,Colour_Similarity_Experiment,2020.1.2,Win32,60,5fb5945709dec70f2d595766,,,,,,,,,,,,,,,,,,,,FF,,,,,,,,7,0.78315,,,,,,,,,,,,,,,,,,,,,,,,,,,,6,52.80001223,113.5999953,1,0,0,response1disk,3,-3.999988616,12.79999375,1,0,0,rectangle,-3.999988616,12.79999375,1,0,0,5,5,"[276,72,302,31,133,244,183,293,113,316,307,62,258,282,86,262,160,103,130,243]",-3.999988616,12.79999375,1,0,0,0,97,96,96,21,1,,,,,,,,,,,,,,,,,,,,,
,,,,,,,,,,,,,,,,,,,,,,,,,,,,,,,,,,,,,,,,,,,5d4857023c661b0001653a5d,5fb7070ae225251d0152f38e,2020-11-20_01h01.24.749,Colour_Similarity_Experiment,2020.1.2,Win32,60,5fb5945709dec70f2d595766,,,,,,,,,,,,,,,,,,,,FF,,,,,,,,7,0.801765,,,,,,,,,,,,,,,,,,,,,,,,,,,,1,40.80001205,111.9999952,1,0,0,response1disk,6,3.200011492,3.19999361,1,0,0,rectangle,3.200011492,3.19999361,1,0,0,5,1,"[276,72,302,31,133,244,183,293,113,316,307,62,258,282,86,262,160,103,130,243]",3.200011492,3.19999361,1,0,0,0,98,97,97,58,1,,,,,,,,,,,,,,,,,,,,,
,,,,,,,,,,,,,,,,,,,,,,,,,,,,,,,,,,,,,,,,,,,5d4857023c661b0001653a5d,5fb7070ae225251d0152f38e,2020-11-20_01h01.24.749,Colour_Similarity_Experiment,2020.1.2,Win32,60,5fb5945709dec70f2d595766,,,,,,,,,,,,,,,,,,,,PF,,,,,,,,7,1.591365,,,,,,,,,,,,,,,,,,,,,,,,,,,,8,47.20001215,91.19997051,1,0,0,response1disk,6,1.14E-05,3.19999361,1,0,0,rectangle,1.14E-05,3.19999361,1,0,0,5,7,"[276,72,302,31,133,244,183,293,113,316,307,62,258,282,86,262,160,103,130,243]",1.14E-05,3.19999361,1,0,0,0,99,98,98,161,1,,,,,,,,,,,,,,,,,,,,,
,,,,,,,,,,,,,,,,,,,,,,,,,,,,,,,,,,,,,,,,,,,5d4857023c661b0001653a5d,5fb7070ae225251d0152f38e,2020-11-20_01h01.24.749,Colour_Similarity_Experiment,2020.1.2,Win32,60,5fb5945709dec70f2d595766,,,,,,,,,,,,,,,,,,,,PF,,,,,,,,7,0.91019,,,,,,,,,,,,,,,,,,,,,,,,,,,,5,48.80001217,106.3999951,1,0,0,response1disk,8,1.14E-05,12.79999375,1,0,0,rectangle,1.14E-05,12.79999375,1,0,0,5,7,"[276,72,302,31,133,244,183,293,113,316,307,62,258,282,86,262,160,103,130,243]",1.14E-05,12.79999375,1,0,0,0,100,99,99,149,1,,,,,,,,,,,,,,,,,,,,,
,,,,,,,,,,,,,,,,,,,,,,,,,,,,,,,,,,,,,,,,,,,5d4857023c661b0001653a5d,5fb7070ae225251d0152f38e,2020-11-20_01h01.24.749,Colour_Similarity_Experiment,2020.1.2,Win32,60,5fb5945709dec70f2d595766,,,,,,,,,,,,,,,,,,,,FF,,,,,,,,6,1.06632,,,,,,,,,,,,,,,,,,,,,,,,,,,,1,104.800013,27.19996955,1,0,0,response1disk,2,-0.799988568,6.399993658,1,0,0,rectangle,-0.799988568,6.399993658,1,0,0,5,1,"[276,72,302,31,133,244,183,293,113,316,307,62,258,282,86,262,160,103,130,243]",-0.799988568,6.399993658,1,0,0,0,101,100,100,2,1,,,,,,,,,,,,,,,,,,,,,
,,,,,,,,,,,,,,,,,,,,,,,,,,,,,,,,,,,,,,,,,,,5d4857023c661b0001653a5d,5fb7070ae225251d0152f38e,2020-11-20_01h01.24.749,Colour_Similarity_Experiment,2020.1.2,Win32,60,5fb5945709dec70f2d595766,,,,,,,,,,,,,,,,,,,,PF,,,,,,,,7,2.264785,,,,,,,,,,,,,,,,,,,,,,,,,,,,2,46.40001214,105.5999951,1,0,0,response1disk,9,-4.799988627,9.599993706,1,0,0,rectangle,-4.799988627,9.599993706,1,0,0,5,3,"[276,72,302,31,133,244,183,293,113,316,307,62,258,282,86,262,160,103,130,243]",-4.799988627,9.599993706,1,0,0,0,102,101,101,39,1,,,,,,,,,,,,,,,,,,,,,
,,,,,,,,,,,,,,,,,,,,,,,,,,,,,,,,,,,,,,,,,,,5d4857023c661b0001653a5d,5fb7070ae225251d0152f38e,2020-11-20_01h01.24.749,Colour_Similarity_Experiment,2020.1.2,Win32,60,5fb5945709dec70f2d595766,,,,,,,,,,,,,,,,,,,,PF,,,,,,,,7,1.46617,,,,,,,,,,,,,,,,,,,,,,,,,,,,8,44.0000121,106.3999951,1,0,0,response1disk,1,1.14E-05,15.19999379,1,0,0,rectangle,-92.79998994,-47.20000714,1,0,0,5,2,"[276,72,302,31,133,244,183,293,113,316,307,62,258,282,86,262,160,103,130,243]",4.000011504,0.799993575,1,0,0,0,103,102,102,57,1,response5disk_3,rectangle,,,,,,,,,,,,,,,,,,,
,,,,,,,,,,,,,,,,,,,,,,,,,,,,,,,,,,,,,,,,,,,5d4857023c661b0001653a5d,5fb7070ae225251d0152f38e,2020-11-20_01h01.24.749,Colour_Similarity_Experiment,2020.1.2,Win32,60,5fb5945709dec70f2d595766,,,,,,,,,,,,,,,,,,,,FF,,,,,,,,0,0.98298,,,,,,,,,,,,,,,,,,,,,,,,,,,,9,-39.19998914,98.39999503,1,0,0,response7disk,9,4.800011516,-1.600006461,1,0,0,rectangle,4.800011516,-1.600006461,1,0,0,5,1,"[276,72,302,31,133,244,183,293,113,316,307,62,258,282,86,262,160,103,130,243]",4.800011516,-1.600006461,1,0,0,0,104,103,103,17,1,,,,,,,,,,,,,,,,,,,,,
,,,,,,,,,,,,,,,,,,,,,,,,,,,,,,,,,,,,,,,,,,,5d4857023c661b0001653a5d,5fb7070ae225251d0152f38e,2020-11-20_01h01.24.749,Colour_Similarity_Experiment,2020.1.2,Win32,60,5fb5945709dec70f2d595766,,,,,,,,,,,,,,,,,,,,FF,,,,,,,,7,1.049515,,,,,,,,,,,,,,,,,,,,,,,,,,,,2,38.40001202,100.7999951,1,0,0,response1disk,6,-3.199988604,-1.600006461,1,0,0,rectangle,-3.199988604,-1.600006461,1,0,0,5,3,"[276,72,302,31,133,244,183,293,113,316,307,62,258,282,86,262,160,103,130,243]",-3.199988604,-1.600006461,1,0,0,0,105,104,104,40,1,,,,,,,,,,,,,,,,,,,,,
,,,,,,,,,,,,,,,,,,,,,,,,,,,,,,,,,,,,,,,,,,,5d4857023c661b0001653a5d,5fb7070ae225251d0152f38e,2020-11-20_01h01.24.749,Colour_Similarity_Experiment,2020.1.2,Win32,60,5fb5945709dec70f2d595766,,,,,,,,,,,,,,,,,,,,PF,,,,,,,,7,0.99929,,,,,,,,,,,,,,,,,,,,,,,,,,,,7,47.20001215,93.59999496,1,0,0,response1disk,3,1.14E-05,7.19999367,1,0,0,rectangle,1.14E-05,7.19999367,1,0,0,5,7,"[276,72,302,31,133,244,183,293,113,316,307,62,258,282,86,262,160,103,130,243]",1.14E-05,7.19999367,1,0,0,0,106,105,105,81,1,,,,,,,,,,,,,,,,,,,,,
,,,,,,,,,,,,,,,,,,,,,,,,,,,,,,,,,,,,,,,,,,,5d4857023c661b0001653a5d,5fb7070ae225251d0152f38e,2020-11-20_01h01.24.749,Colour_Similarity_Experiment,2020.1.2,Win32,60,5fb5945709dec70f2d595766,,,,,,,,,,,,,,,,,,,,PF,,,,,,,,4,1.499665,,,,,,,,,,,,,,,,,,,,,,,,,,,,3,36.80001199,-100.0000079,1,0,0,response3disk,4,-4.799988627,-15.20000666,1,0,0,rectangle,-4.799988627,-15.20000666,1,0,0,5,5,"[276,72,302,31,133,244,183,293,113,316,307,62,258,282,86,262,160,103,130,243]",-4.799988627,-15.20000666,1,0,0,0,107,106,106,30,1,,,,,,,,,,,,,,,,,,,,,
,,,,,,,,,,,,,,,,,,,,,,,,,,,,,,,,,,,,,,,,,,,5d4857023c661b0001653a5d,5fb7070ae225251d0152f38e,2020-11-20_01h01.24.749,Colour_Similarity_Experiment,2020.1.2,Win32,60,5fb5945709dec70f2d595766,,,,,,,,,,,,,,,,,,,,FF,,,,,,,,5,1.682735,,,,,,,,,,,,,,,,,,,,,,,,,,,,1,95.20001286,-45.60000712,1,0,0,response3disk,9,-5.599988639,-12.80000663,1,0,0,rectangle,-5.599988639,-12.80000663,1,0,0,5,2,"[276,72,302,31,133,244,183,293,113,316,307,62,258,282,86,262,160,103,130,243]",-5.599988639,-12.80000663,1,0,0,0,108,107,107,123,1,,,,,,,,,,,,,,,,,,,,,
,,,,,,,,,,,,,,,,,,,,,,,,,,,,,,,,,,,,,,,,,,,5d4857023c661b0001653a5d,5fb7070ae225251d0152f38e,2020-11-20_01h01.24.749,Colour_Similarity_Experiment,2020.1.2,Win32,60,5fb5945709dec70f2d595766,,,,,,,,,,,,,,,,,,,,PF,,,,,,,,7,0.99888,,,,,,,,,,,,,,,,,,,,,,,,,,,,9,37.60006083,97.59999502,1,0,0,response1disk,6,-2.399939764,-0.800006449,1,0,0,rectangle,-2.399939764,-0.800006449,1,0,0,5,6,"[276,72,302,31,133,244,183,293,113,316,307,62,258,282,86,262,160,103,130,243]",-2.399939764,-0.800006449,1,0,0,0,109,108,108,148,1,,,,,,,,,,,,,,,,,,,,,
,,,,,,,,,,,,,,,,,,,,,,,,,,,,,,,,,,,,,,,,,,,5d4857023c661b0001653a5d,5fb7070ae225251d0152f38e,2020-11-20_01h01.24.749,Colour_Similarity_Experiment,2020.1.2,Win32,60,5fb5945709dec70f2d595766,,,,,,,,,,,,,,,,,,,,PF,,,,,,,,6,1.166445,,,,,,,,,,,,,,,,,,,,,,,,,,,,8,99.20001292,39.19996973,1,0,0,response1disk,9,1.14E-05,5.599993646,1,0,0,rectangle,1.14E-05,5.599993646,1,0,0,5,6,"[276,72,302,31,133,244,183,293,113,316,307,62,258,282,86,262,160,103,130,243]",1.14E-05,5.599993646,1,0,0,0,110,109,109,42,1,,,,,,,,,,,,,,,,,,,,,
,,,,,,,,,,,,,,,,,,,,,,,,,,,,,,,,,,,,,,,,,,,5d4857023c661b0001653a5d,5fb7070ae225251d0152f38e,2020-11-20_01h01.24.749,Colour_Similarity_Experiment,2020.1.2,Win32,60,5fb5945709dec70f2d595766,,,,,,,,,,,,,,,,,,,,FF,,,,,,,,7,1.09984,,,,,,,,,,,,,,,,,,,,,,,,,,,,3,40.80001205,100.7999951,1,0,0,response1disk,8,-3.999988616,-13.60000664,1,0,0,rectangle,-3.999988616,-13.60000664,1,0,0,5,4,"[276,72,302,31,133,244,183,293,113,316,307,62,258,282,86,262,160,103,130,243]",-3.999988616,-13.60000664,1,0,0,0,111,110,110,44,1,,,,,,,,,,,,,,,,,,,,,
,,,,,,,,,,,,,,,,,,,,,,,,,,,,,,,,,,,,,,,,,,,5d4857023c661b0001653a5d,5fb7070ae225251d0152f38e,2020-11-20_01h01.24.749,Colour_Similarity_Experiment,2020.1.2,Win32,60,5fb5945709dec70f2d595766,,,,,,,,,,,,,,,,,,,,PF,,,,,,,,6,2.38247,,,,,,,,,,,,,,,,,,,,,,,,,,,,1,101.600013,39.99999416,1,0,0,response1disk,2,3.200011492,-1.600006461,1,0,0,rectangle,3.200011492,-1.600006461,1,0,0,5,6,"[276,72,302,31,133,244,183,293,113,316,307,62,258,282,86,262,160,103,130,243]",3.200011492,-1.600006461,1,0,0,0,112,111,111,24,1,,,,,,,,,,,,,,,,,,,,,
,,,,,,,,,,,,,,,,,,,,,,,,,,,,,,,,,,,,,,,,,,,5d4857023c661b0001653a5d,5fb7070ae225251d0152f38e,2020-11-20_01h01.24.749,Colour_Similarity_Experiment,2020.1.2,Win32,60,5fb5945709dec70f2d595766,,,,,,,,,,,,,,,,,,,,FF,,,,,,,,7,0.73313,,,,,,,,,,,,,,,,,,,,,,,,,,,,7,45.60006095,99.19997063,1,0,0,response1disk,1,-1.59998858,0.799993575,1,0,0,rectangle,48.00001216,115.1999709,1,0,0,7,7,"[276,72,302,31,133,244,183,293,113,316,307,62,258,282,86,262,160,103,130,243]",4.000011504,-8.800006568,1,0,0,0,113,112,112,132,1,response1disk_3,rectangle,,,,,,,,,,,,,,,,,,,
,,,,,,,,,,,,,,,,,,,,,,,,,,,,,,,,,,,,,,,,,,,5d4857023c661b0001653a5d,5fb7070ae225251d0152f38e,2020-11-20_01h01.24.749,Colour_Similarity_Experiment,2020.1.2,Win32,60,5fb5945709dec70f2d595766,,,,,,,,,,,,,,,,,,,,FF,,,,,,,,0,0.93271,,,,,,,,,,,,,,,,,,,,,,,,,,,,3,-44.79998922,107.1999707,1,0,0,response7disk,3,11.20001161,-10.40000659,1,0,0,rectangle,11.20001161,-10.40000659,1,0,0,7,4,"[276,72,302,31,133,244,183,293,113,316,307,62,258,282,86,262,160,103,130,243]",11.20001161,-10.40000659,1,0,0,0,114,113,113,68,1,,,,,,,,,,,,,,,,,,,,,
,,,,,,,,,,,,,,,,,,,,,,,,,,,,,,,,,,,,,,,,,,,5d4857023c661b0001653a5d,5fb7070ae225251d0152f38e,2020-11-20_01h01.24.749,Colour_Similarity_Experiment,2020.1.2,Win32,60,5fb5945709dec70f2d595766,,,,,,,,,,,,,,,,,,,,PF,,,,,,,,0,0.73327,,,,,,,,,,,,,,,,,,,,,,,,,,,,4,-21.59998888,95.99999499,1,0,0,response7disk,4,1.14E-05,-12.00000662,1,0,0,rectangle,1.14E-05,-12.00000662,1,0,0,7,2,"[276,72,302,31,133,244,183,293,113,316,307,62,258,282,86,262,160,103,130,243]",1.14E-05,-12.00000662,1,0,0,0,115,114,114,70,1,,,,,,,,,,,,,,,,,,,,,
,,,,,,,,,,,,,,,,,,,,,,,,,,,,,,,,,,,,,,,,,,,5d4857023c661b0001653a5d,5fb7070ae225251d0152f38e,2020-11-20_01h01.24.749,Colour_Similarity_Experiment,2020.1.2,Win32,60,5fb5945709dec70f2d595766,,,,,,,,,,,,,,,,,,,,PF,,,,,,,,7,0.98289,,,,,,,,,,,,,,,,,,,,,,,,,,,,1,49.60006101,108.7999952,1,0,0,response1disk,4,4.800011516,-3.200006485,1,0,0,rectangle,4.800011516,-3.200006485,1,0,0,7,7,"[276,72,302,31,133,244,183,293,113,316,307,62,258,282,86,262,160,103,130,243]",4.800011516,-3.200006485,1,0,0,0,116,115,115,139,1,,,,,,,,,,,,,,,,,,,,,
,,,,,,,,,,,,,,,,,,,,,,,,,,,,,,,,,,,,,,,,,,,5d4857023c661b0001653a5d,5fb7070ae225251d0152f38e,2020-11-20_01h01.24.749,Colour_Similarity_Experiment,2020.1.2,Win32,60,5fb5945709dec70f2d595766,,,,,,,,,,,,,,,,,,,,FF,,,,,,,,7,0.76585,,,,,,,,,,,,,,,,,,,,,,,,,,,,2,30.4000119,95.99999499,1,0,0,response1disk,5,-3.199988604,3.19999361,1,0,0,rectangle,-3.199988604,3.19999361,1,0,0,7,6,"[276,72,302,31,133,244,183,293,113,316,307,62,258,282,86,262,160,103,130,243]",-3.199988604,3.19999361,1,0,0,0,117,116,116,80,1,,,,,,,,,,,,,,,,,,,,,
,,,,,,,,,,,,,,,,,,,,,,,,,,,,,,,,,,,,,,,,,,,5d4857023c661b0001653a5d,5fb7070ae225251d0152f38e,2020-11-20_01h01.24.749,Colour_Similarity_Experiment,2020.1.2,Win32,60,5fb5945709dec70f2d595766,,,,,,,,,,,,,,,,,,,,PF,,,,,,,,0,0.916085,,,,,,,,,,,,,,,,,,,,,,,,,,,,6,-51.99998933,93.59999496,1,0,0,response7disk,6,1.600060296,-8.800006568,1,0,0,rectangle,1.600060296,-8.800006568,1,0,0,7,3,"[276,72,302,31,133,244,183,293,113,316,307,62,258,282,86,262,160,103,130,243]",1.600060296,-8.800006568,1,0,0,0,118,117,117,0,1,,,,,,,,,,,,,,,,,,,,,
,,,,,,,,,,,,,,,,,,,,,,,,,,,,,,,,,,,,,,,,,,,5d4857023c661b0001653a5d,5fb7070ae225251d0152f38e,2020-11-20_01h01.24.749,Colour_Similarity_Experiment,2020.1.2,Win32,60,5fb5945709dec70f2d595766,,,,,,,,,,,,,,,,,,,,FF,,,,,,,,0,0.749505,,,,,,,,,,,,,,,,,,,,,,,,,,,,7,-39.99998915,78.39999473,1,0,0,response7disk,7,-2.399939764,-6.400006533,1,0,0,rectangle,-2.399939764,-6.400006533,1,0,0,7,6,"[276,72,302,31,133,244,183,293,113,316,307,62,258,282,86,262,160,103,130,243]",-2.399939764,-6.400006533,1,0,0,0,119,118,118,34,1,,,,,,,,,,,,,,,,,,,,,
,,,,,,,,,,,,,,,,,,,,,,,,,,,,,,,,,,,,,,,,,,,5d4857023c661b0001653a5d,5fb7070ae225251d0152f38e,2020-11-20_01h01.24.749,Colour_Similarity_Experiment,2020.1.2,Win32,60,5fb5945709dec70f2d595766,,,,,,,,,,,,,,,,,,,,FF,,,,,,,,3,1.56657,,,,,,,,,,,,,,,,,,,,,,,,,,,,7,-30.39994018,-94.40000784,1,0,0,response5disk,6,1.14E-05,-5.600006521,1,0,0,rectangle,1.14E-05,-5.600006521,1,0,0,7,5,"[276,72,302,31,133,244,183,293,113,316,307,62,258,282,86,262,160,103,130,243]",1.14E-05,-5.600006521,1,0,0,0,120,119,119,31,1,,,,,,,,,,,,,,,,,,,,,
,,,,,,,,,,,,,,,,,,,,,,,,,,,,,,,,,,,,,,,,,,,5d4857023c661b0001653a5d,5fb7070ae225251d0152f38e,2020-11-20_01h01.24.749,Colour_Similarity_Experiment,2020.1.2,Win32,60,5fb5945709dec70f2d595766,,,,,,,,,,,,,,,,,,,,FF,,,,,,,,7,0.799735,,,,,,,,,,,,,,,,,,,,,,,,,,,,3,55.20001227,99.99999505,1,0,0,response1disk,6,11.20001161,8.799993694,1,0,0,rectangle,11.20001161,8.799993694,1,0,0,7,5,"[276,72,302,31,133,244,183,293,113,316,307,62,258,282,86,262,160,103,130,243]",11.20001161,8.799993694,1,0,0,0,121,120,120,95,1,,,,,,,,,,,,,,,,,,,,,
,,,,,,,,,,,,,,,,,,,,,,,,,,,,,,,,,,,,,,,,,,,5d4857023c661b0001653a5d,5fb7070ae225251d0152f38e,2020-11-20_01h01.24.749,Colour_Similarity_Experiment,2020.1.2,Win32,60,5fb5945709dec70f2d595766,,,,,,,,,,,,,,,,,,,,FF,,,,,,,,5,1.0162,,,,,,,,,,,,,,,,,,,,,,,,,,,,3,70.40001249,-24.00000679,1,0,0,response3disk,4,12.00001162,-9.60000658,1,0,0,rectangle,12.00001162,-9.60000658,1,0,0,7,6,"[276,72,302,31,133,244,183,293,113,316,307,62,258,282,86,262,160,103,130,243]",12.00001162,-9.60000658,1,0,0,0,122,121,121,110,1,,,,,,,,,,,,,,,,,,,,,
,,,,,,,,,,,,,,,,,,,,,,,,,,,,,,,,,,,,,,,,,,,5d4857023c661b0001653a5d,5fb7070ae225251d0152f38e,2020-11-20_01h01.24.749,Colour_Similarity_Experiment,2020.1.2,Win32,60,5fb5945709dec70f2d595766,,,,,,,,,,,,,,,,,,,,PF,,,,,,,,3,1.1498,,,,,,,,,,,,,,,,,,,,,,,,,,,,6,-38.3999403,-112.0000081,1,0,0,response5disk,7,4.800011516,-6.400006533,1,0,0,rectangle,4.800011516,-6.400006533,1,0,0,7,1,"[276,72,302,31,133,244,183,293,113,316,307,62,258,282,86,262,160,103,130,243]",4.800011516,-6.400006533,1,0,0,0,123,122,122,50,1,,,,,,,,,,,,,,,,,,,,,
,,,,,,,,,,,,,,,,,,,,,,,,,,,,,,,,,,,,,,,,,,,5d4857023c661b0001653a5d,5fb7070ae225251d0152f38e,2020-11-20_01h01.24.749,Colour_Similarity_Experiment,2020.1.2,Win32,60,5fb5945709dec70f2d595766,,,,,,,,,,,,,,,,,,,,PF,,,,,,,,7,1.016295,,,,,,,,,,,,,,,,,,,,,,,,,,,,1,29.60006071,97.59999502,1,0,0,response1disk,7,-11.99998873,1.599993587,1,0,0,rectangle,-11.99998873,1.599993587,1,0,0,7,0,"[276,72,302,31,133,244,183,293,113,316,307,62,258,282,86,262,160,103,130,243]",-11.99998873,1.599993587,1,0,0,0,124,123,123,150,1,,,,,,,,,,,,,,,,,,,,,
,,,,,,,,,,,,,,,,,,,,,,,,,,,,,,,,,,,,,,,,,,,5d4857023c661b0001653a5d,5fb7070ae225251d0152f38e,2020-11-20_01h01.24.749,Colour_Similarity_Experiment,2020.1.2,Win32,60,5fb5945709dec70f2d595766,,,,,,,,,,,,,,,,,,,,FF,,,,,,,,5,1.215465,,,,,,,,,,,,,,,,,,,,,,,,,,,,6,88.00001276,-45.60000712,1,0,0,response3disk,5,-2.399939764,6.399993658,1,0,0,rectangle,-2.399939764,6.399993658,1,0,0,7,4,"[276,72,302,31,133,244,183,293,113,316,307,62,258,282,86,262,160,103,130,243]",-2.399939764,6.399993658,1,0,0,0,125,124,124,126,1,,,,,,,,,,,,,,,,,,,,,
,,,,,,,,,,,,,,,,,,,,,,,,,,,,,,,,,,,,,,,,,,,5d4857023c661b0001653a5d,5fb7070ae225251d0152f38e,2020-11-20_01h01.24.749,Colour_Similarity_Experiment,2020.1.2,Win32,60,5fb5945709dec70f2d595766,,,,,,,,,,,,,,,,,,,,FF,,,,,,,,7,1.416335,,,,,,,,,,,,,,,,,,,,,,,,,,,,9,41.60006089,104.7999951,1,0,0,response1disk,4,-7.199988663,1.599993587,1,0,0,rectangle,-7.199988663,1.599993587,1,0,0,7,1,"[276,72,302,31,133,244,183,293,113,316,307,62,258,282,86,262,160,103,130,243]",-7.199988663,1.599993587,1,0,0,0,126,125,125,60,1,,,,,,,,,,,,,,,,,,,,,
,,,,,,,,,,,,,,,,,,,,,,,,,,,,,,,,,,,,,,,,,,,5d4857023c661b0001653a5d,5fb7070ae225251d0152f38e,2020-11-20_01h01.24.749,Colour_Similarity_Experiment,2020.1.2,Win32,60,5fb5945709dec70f2d595766,,,,,,,,,,,,,,,,,,,,FF,,,,,,,,7,0.74969,,,,,,,,,,,,,,,,,,,,,,,,,,,,1,29.60006071,87.19997045,1,0,0,response1disk,3,-3.999988616,7.999993682,1,0,0,rectangle,-3.999988616,7.999993682,1,0,0,7,7,"[276,72,302,31,133,244,183,293,113,316,307,62,258,282,86,262,160,103,130,243]",-3.999988616,7.999993682,1,0,0,0,127,126,126,99,1,,,,,,,,,,,,,,,,,,,,,
,,,,,,,,,,,,,,,,,,,,,,,,,,,,,,,,,,,,,,,,,,,5d4857023c661b0001653a5d,5fb7070ae225251d0152f38e,2020-11-20_01h01.24.749,Colour_Similarity_Experiment,2020.1.2,Win32,60,5fb5945709dec70f2d595766,,,,,,,,,,,,,,,,,,,,FF,,,,,,,,7,0.599595,,,,,,,,,,,,,,,,,,,,,,,,,,,,5,37.60006083,85.59999484,1,0,0,response1disk,8,-6.399939823,-2.400006473,1,0,0,rectangle,-6.399939823,-2.400006473,1,0,0,7,1,"[276,72,302,31,133,244,183,293,113,316,307,62,258,282,86,262,160,103,130,243]",-6.399939823,-2.400006473,1,0,0,0,128,127,127,16,1,,,,,,,,,,,,,,,,,,,,,
,,,,,,,,,,,,,,,,,,,,,,,,,,,,,,,,,,,,,,,,,,,5d4857023c661b0001653a5d,5fb7070ae225251d0152f38e,2020-11-20_01h01.24.749,Colour_Similarity_Experiment,2020.1.2,Win32,60,5fb5945709dec70f2d595766,,,,,,,,,,,,,,,,,,,,PF,,,,,,,,3,1.68265,,,,,,,,,,,,,,,,,,,,,,,,,,,,7,-35.19998908,-109.6000569,1,0,0,response5disk,6,3.200011492,1.599993587,1,0,0,rectangle,3.200011492,1.599993587,1,0,0,7,5,"[276,72,302,31,133,244,183,293,113,316,307,62,258,282,86,262,160,103,130,243]",3.200011492,1.599993587,1,0,0,0,129,128,128,29,1,,,,,,,,,,,,,,,,,,,,,
,,,,,,,,,,,,,,,,,,,,,,,,,,,,,,,,,,,,,,,,,,,5d4857023c661b0001653a5d,5fb7070ae225251d0152f38e,2020-11-20_01h01.24.749,Colour_Similarity_Experiment,2020.1.2,Win32,60,5fb5945709dec70f2d595766,,,,,,,,,,,,,,,,,,,,FF,,,,,,,,7,0.79944,,,,,,,,,,,,,,,,,,,,,,,,,,,,4,41.60006089,101.5999951,1,0,0,response1disk,6,3.200011492,7.19999367,1,0,0,rectangle,-39.99998915,105.5999951,1,0,0,0,0,"[276,72,302,31,133,244,183,293,113,316,307,62,258,282,86,262,160,103,130,243]",-4.799988627,2.399993598,1,0,0,0,130,129,129,122,1,response7disk_3,rectangle,,,,,,,,,,,,,,,,,,,
,,,,,,,,,,,,,,,,,,,,,,,,,,,,,,,,,,,,,,,,,,,5d4857023c661b0001653a5d,5fb7070ae225251d0152f38e,2020-11-20_01h01.24.749,Colour_Similarity_Experiment,2020.1.2,Win32,60,5fb5945709dec70f2d595766,,,,,,,,,,,,,,,,,,,,FF,,,,,,,,0,0.733065,,,,,,,,,,,,,,,,,,,,,,,,,,,,4,-38.3999403,101.5999951,1,0,0,response7disk,4,-0.799988568,-0.800006449,1,0,0,rectangle,-0.799988568,-0.800006449,1,0,0,0,2,"[276,72,302,31,133,244,183,293,113,316,307,62,258,282,86,262,160,103,130,243]",-0.799988568,-0.800006449,1,0,0,0,131,130,130,84,1,,,,,,,,,,,,,,,,,,,,,
,,,,,,,,,,,,,,,,,,,,,,,,,,,,,,,,,,,,,,,,,,,5d4857023c661b0001653a5d,5fb7070ae225251d0152f38e,2020-11-20_01h01.24.749,Colour_Similarity_Experiment,2020.1.2,Win32,60,5fb5945709dec70f2d595766,,,,,,,,,,,,,,,,,,,,FF,,,,,,,,7,0.71608,,,,,,,,,,,,,,,,,,,,,,,,,,,,1,29.60006071,101.5999951,1,0,0,response1disk,7,2.40001148,5.599993646,1,0,0,rectangle,2.40001148,5.599993646,1,0,0,0,6,"[276,72,302,31,133,244,183,293,113,316,307,62,258,282,86,262,160,103,130,243]",2.40001148,5.599993646,1,0,0,0,132,131,131,137,1,,,,,,,,,,,,,,,,,,,,,
,,,,,,,,,,,,,,,,,,,,,,,,,,,,,,,,,,,,,,,,,,,5d4857023c661b0001653a5d,5fb7070ae225251d0152f38e,2020-11-20_01h01.24.749,Colour_Similarity_Experiment,2020.1.2,Win32,60,5fb5945709dec70f2d595766,,,,,,,,,,,,,,,,,,,,FF,,,,,,,,7,0.632985,,,,,,,,,,,,,,,,,,,,,,,,,,,,1,41.60006089,109.5999952,1,0,0,response1disk,5,-7.199988663,3.999993622,1,0,0,rectangle,-99.99999005,43.19996979,1,0,0,1,1,"[276,72,302,31,133,244,183,293,113,316,307,62,258,282,86,262,160,103,130,243]",-19.99998885,0.799993575,1,0,0,0,133,132,132,82,1,response7disk_3,rectangle,,,,,,,,,,,,,,,,,,,
,,,,,,,,,,,,,,,,,,,,,,,,,,,,,,,,,,,,,,,,,,,5d4857023c661b0001653a5d,5fb7070ae225251d0152f38e,2020-11-20_01h01.24.749,Colour_Similarity_Experiment,2020.1.2,Win32,60,5fb5945709dec70f2d595766,,,,,,,,,,,,,,,,,,,,PF,,,,,,,,7,1.266355,,,,,,,,,,,,,,,,,,,,,,,,,,,,2,41.60006089,96.79999501,1,0,0,response1disk,4,4.000011504,3.999993622,1,0,0,rectangle,4.000011504,3.999993622,1,0,0,1,0,"[276,72,302,31,133,244,183,293,113,316,307,62,258,282,86,262,160,103,130,243]",4.000011504,3.999993622,1,0,0,0,134,133,133,127,1,,,,,,,,,,,,,,,,,,,,,
,,,,,,,,,,,,,,,,,,,,,,,,,,,,,,,,,,,,,,,,,,,5d4857023c661b0001653a5d,5fb7070ae225251d0152f38e,2020-11-20_01h01.24.749,Colour_Similarity_Experiment,2020.1.2,Win32,60,5fb5945709dec70f2d595766,,,,,,,,,,,,,,,,,,,,FF,,,,,,,,7,0.9162,,,,,,,,,,,,,,,,,,,,,,,,,,,,6,37.60006083,97.59999502,1,0,0,response1disk,8,-6.399939823,14.39999378,1,0,0,rectangle,-6.399939823,14.39999378,1,0,0,1,6,"[276,72,302,31,133,244,183,293,113,316,307,62,258,282,86,262,160,103,130,243]",-6.399939823,14.39999378,1,0,0,0,135,134,134,133,1,,,,,,,,,,,,,,,,,,,,,
,,,,,,,,,,,,,,,,,,,,,,,,,,,,,,,,,,,,,,,,,,,5d4857023c661b0001653a5d,5fb7070ae225251d0152f38e,2020-11-20_01h01.24.749,Colour_Similarity_Experiment,2020.1.2,Win32,60,5fb5945709dec70f2d595766,,,,,,,,,,,,,,,,,,,,PF,,,,,,,,7,2.21559,,,,,,,,,,,,,,,,,,,,,,,,,,,,3,45.60006095,99.19997063,1,0,0,response1disk,5,8.800011575,11.19999373,1,0,0,rectangle,8.800011575,11.19999373,1,0,0,1,5,"[276,72,302,31,133,244,183,293,113,316,307,62,258,282,86,262,160,103,130,243]",8.800011575,11.19999373,1,0,0,0,136,135,135,66,1,,,,,,,,,,,,,,,,,,,,,
,,,,,,,,,,,,,,,,,,,,,,,,,,,,,,,,,,,,,,,,,,,5d4857023c661b0001653a5d,5fb7070ae225251d0152f38e,2020-11-20_01h01.24.749,Colour_Similarity_Experiment,2020.1.2,Win32,60,5fb5945709dec70f2d595766,,,,,,,,,,,,,,,,,,,,FF,,,,,,,,7,0.699965,,,,,,,,,,,,,,,,,,,,,,,,,,,,5,53.60001224,108.7999952,1,0,0,response1disk,1,-5.599988639,-4.000006497,1,0,0,rectangle,-5.599988639,-4.000006497,1,0,0,1,6,"[276,72,302,31,133,244,183,293,113,316,307,62,258,282,86,262,160,103,130,243]",-5.599988639,-4.000006497,1,0,0,0,137,136,136,131,1,,,,,,,,,,,,,,,,,,,,,
,,,,,,,,,,,,,,,,,,,,,,,,,,,,,,,,,,,,,,,,,,,5d4857023c661b0001653a5d,5fb7070ae225251d0152f38e,2020-11-20_01h01.24.749,Colour_Similarity_Experiment,2020.1.2,Win32,60,5fb5945709dec70f2d595766,,,,,,,,,,,,,,,,,,,,FF,,,,,,,,7,0.533155,,,,,,,,,,,,,,,,,,,,,,,,,,,,7,44.0000121,99.99999505,1,0,0,response1disk,4,-11.99998873,0.799993575,1,0,0,rectangle,-11.99998873,0.799993575,1,0,0,1,6,"[276,72,302,31,133,244,183,293,113,316,307,62,258,282,86,262,160,103,130,243]",-11.99998873,0.799993575,1,0,0,0,138,137,137,158,1,,,,,,,,,,,,,,,,,,,,,
,,,,,,,,,,,,,,,,,,,,,,,,,,,,,,,,,,,,,,,,,,,5d4857023c661b0001653a5d,5fb7070ae225251d0152f38e,2020-11-20_01h01.24.749,Colour_Similarity_Experiment,2020.1.2,Win32,60,5fb5945709dec70f2d595766,,,,,,,,,,,,,,,,,,,,PF,,,,,,,,7,0.71634,,,,,,,,,,,,,,,,,,,,,,,,,,,,1,38.40001202,99.99999505,1,0,0,response1disk,9,-10.39993988,3.999993622,1,0,0,rectangle,-10.39993988,3.999993622,1,0,0,1,6,"[276,72,302,31,133,244,183,293,113,316,307,62,258,282,86,262,160,103,130,243]",-10.39993988,3.999993622,1,0,0,0,139,138,138,15,1,,,,,,,,,,,,,,,,,,,,,
,,,,,,,,,,,,,,,,,,,,,,,,,,,,,,,,,,,,,,,,,,,5d4857023c661b0001653a5d,5fb7070ae225251d0152f38e,2020-11-20_01h01.24.749,Colour_Similarity_Experiment,2020.1.2,Win32,60,5fb5945709dec70f2d595766,,,,,,,,,,,,,,,,,,,,FF,,,,,,,,7,0.84987,,,,,,,,,,,,,,,,,,,,,,,,,,,,9,49.60006101,90.39999491,1,0,0,response1disk,5,-0.799988568,3.19999361,1,0,0,rectangle,-0.799988568,3.19999361,1,0,0,1,7,"[276,72,302,31,133,244,183,293,113,316,307,62,258,282,86,262,160,103,130,243]",-0.799988568,3.19999361,1,0,0,0,140,139,139,128,1,,,,,,,,,,,,,,,,,,,,,
,,,,,,,,,,,,,,,,,,,,,,,,,,,,,,,,,,,,,,,,,,,5d4857023c661b0001653a5d,5fb7070ae225251d0152f38e,2020-11-20_01h01.24.749,Colour_Similarity_Experiment,2020.1.2,Win32,60,5fb5945709dec70f2d595766,,,,,,,,,,,,,,,,,,,,FF,,,,,,,,3,1.482535,,,,,,,,,,,,,,,,,,,,,,,,,,,,6,-37.59998912,-106.400008,1,0,0,response5disk,7,-6.399939823,3.19999361,1,0,0,rectangle,-6.399939823,3.19999361,1,0,0,1,1,"[276,72,302,31,133,244,183,293,113,316,307,62,258,282,86,262,160,103,130,243]",-6.399939823,3.19999361,1,0,0,0,141,140,140,18,1,,,,,,,,,,,,,,,,,,,,,
,,,,,,,,,,,,,,,,,,,,,,,,,,,,,,,,,,,,,,,,,,,5d4857023c661b0001653a5d,5fb7070ae225251d0152f38e,2020-11-20_01h01.24.749,Colour_Similarity_Experiment,2020.1.2,Win32,60,5fb5945709dec70f2d595766,,,,,,,,,,,,,,,,,,,,PF,,,,,,,,7,0.933175,,,,,,,,,,,,,,,,,,,,,,,,,,,,3,35.20001197,82.39999479,1,0,0,response1disk,2,0.800011456,-2.400006473,1,0,0,rectangle,0.800011456,-2.400006473,1,0,0,1,0,"[276,72,302,31,133,244,183,293,113,316,307,62,258,282,86,262,160,103,130,243]",0.800011456,-2.400006473,1,0,0,0,142,141,141,36,1,,,,,,,,,,,,,,,,,,,,,
,,,,,,,,,,,,,,,,,,,,,,,,,,,,,,,,,,,,,,,,,,,5d4857023c661b0001653a5d,5fb7070ae225251d0152f38e,2020-11-20_01h01.24.749,Colour_Similarity_Experiment,2020.1.2,Win32,60,5fb5945709dec70f2d595766,,,,,,,,,,,,,,,,,,,,PF,,,,,,,,7,2.165915,,,,,,,,,,,,,,,,,,,,,,,,,,,,4,40.80001205,91.99999493,1,0,0,response1disk,7,-7.999988675,8.799993694,1,0,0,rectangle,-7.999988675,8.799993694,1,0,0,1,4,"[276,72,302,31,133,244,183,293,113,316,307,62,258,282,86,262,160,103,130,243]",-7.999988675,8.799993694,1,0,0,0,143,142,142,38,1,,,,,,,,,,,,,,,,,,,,,
,,,,,,,,,,,,,,,,,,,,,,,,,,,,,,,,,,,,,,,,,,,5d4857023c661b0001653a5d,5fb7070ae225251d0152f38e,2020-11-20_01h01.24.749,Colour_Similarity_Experiment,2020.1.2,Win32,60,5fb5945709dec70f2d595766,,,,,,,,,,,,,,,,,,,,PF,,,,,,,,7,0.61643,,,,,,,,,,,,,,,,,,,,,,,,,,,,3,40.80001205,87.19997045,1,0,0,response1disk,8,-6.399939823,-8.800006568,1,0,0,rectangle,-6.399939823,-8.800006568,1,0,0,1,0,"[276,72,302,31,133,244,183,293,113,316,307,62,258,282,86,262,160,103,130,243]",-6.399939823,-8.800006568,1,0,0,0,144,143,143,3,1,,,,,,,,,,,,,,,,,,,,,
,,,,,,,,,,,,,,,,,,,,,,,,,,,,,,,,,,,,,,,,,,,5d4857023c661b0001653a5d,5fb7070ae225251d0152f38e,2020-11-20_01h01.24.749,Colour_Similarity_Experiment,2020.1.2,Win32,60,5fb5945709dec70f2d595766,,,,,,,,,,,,,,,,,,,,FF,,,,,,,,7,0.59953,,,,,,,,,,,,,,,,,,,,,,,,,,,,6,32.80001193,79.19997033,1,0,0,response1disk,1,-6.399939823,-1.600006461,1,0,0,rectangle,-6.399939823,-1.600006461,1,0,0,1,4,"[276,72,302,31,133,244,183,293,113,316,307,62,258,282,86,262,160,103,130,243]",-6.399939823,-1.600006461,1,0,0,0,145,144,144,5,1,,,,,,,,,,,,,,,,,,,,,
,,,,,,,,,,,,,,,,,,,,,,,,,,,,,,,,,,,,,,,,,,,5d4857023c661b0001653a5d,5fb7070ae225251d0152f38e,2020-11-20_01h01.24.749,Colour_Similarity_Experiment,2020.1.2,Win32,60,5fb5945709dec70f2d595766,,,,,,,,,,,,,,,,,,,,PF,,,,,,,,5,1.48298,,,,,,,,,,,,,,,,,,,,,,,,,,,,4,85.60001272,-44.00000709,1,0,0,response3disk,3,-3.999988616,-3.200006485,1,0,0,rectangle,-3.999988616,-3.200006485,1,0,0,1,1,"[276,72,302,31,133,244,183,293,113,316,307,62,258,282,86,262,160,103,130,243]",-3.999988616,-3.200006485,1,0,0,0,146,145,145,89,1,,,,,,,,,,,,,,,,,,,,,
,,,,,,,,,,,,,,,,,,,,,,,,,,,,,,,,,,,,,,,,,,,5d4857023c661b0001653a5d,5fb7070ae225251d0152f38e,2020-11-20_01h01.24.749,Colour_Similarity_Experiment,2020.1.2,Win32,60,5fb5945709dec70f2d595766,,,,,,,,,,,,,,,,,,,,PF,,,,,,,,7,1.582905,,,,,,,,,,,,,,,,,,,,,,,,,,,,7,42.40001208,91.99999493,1,0,0,response1disk,8,6.400011539,5.599993646,1,0,0,rectangle,6.400011539,5.599993646,1,0,0,1,6,"[276,72,302,31,133,244,183,293,113,316,307,62,258,282,86,262,160,103,130,243]",6.400011539,5.599993646,1,0,0,0,147,146,146,140,1,,,,,,,,,,,,,,,,,,,,,
,,,,,,,,,,,,,,,,,,,,,,,,,,,,,,,,,,,,,,,,,,,5d4857023c661b0001653a5d,5fb7070ae225251d0152f38e,2020-11-20_01h01.24.749,Colour_Similarity_Experiment,2020.1.2,Win32,60,5fb5945709dec70f2d595766,,,,,,,,,,,,,,,,,,,,PF,,,,,,,,7,0.583515,,,,,,,,,,,,,,,,,,,,,,,,,,,,2,36.80001199,93.59999496,1,0,0,response1disk,5,-4.799988627,-6.44E-06,1,0,0,rectangle,-4.799988627,-6.44E-06,1,0,0,1,0,"[276,72,302,31,133,244,183,293,113,316,307,62,258,282,86,262,160,103,130,243]",-4.799988627,-6.44E-06,1,0,0,0,148,147,147,147,1,,,,,,,,,,,,,,,,,,,,,
,,,,,,,,,,,,,,,,,,,,,,,,,,,,,,,,,,,,,,,,,,,5d4857023c661b0001653a5d,5fb7070ae225251d0152f38e,2020-11-20_01h01.24.749,Colour_Similarity_Experiment,2020.1.2,Win32,60,5fb5945709dec70f2d595766,,,,,,,,,,,,,,,,,,,,FF,,,,,,,,7,0.699605,,,,,,,,,,,,,,,,,,,,,,,,,,,,4,43.20001209,88.79999489,1,0,0,response1disk,9,-3.999988616,7.19999367,1,0,0,rectangle,-3.999988616,7.19999367,1,0,0,1,0,"[276,72,302,31,133,244,183,293,113,316,307,62,258,282,86,262,160,103,130,243]",-3.999988616,7.19999367,1,0,0,0,149,148,148,90,1,,,,,,,,,,,,,,,,,,,,,
,,,,,,,,,,,,,,,,,,,,,,,,,,,,,,,,,,,,,,,,,,,5d4857023c661b0001653a5d,5fb7070ae225251d0152f38e,2020-11-20_01h01.24.749,Colour_Similarity_Experiment,2020.1.2,Win32,60,5fb5945709dec70f2d595766,,,,,,,,,,,,,,,,,,,,PF,,,,,,,,7,0.58254,,,,,,,,,,,,,,,,,,,,,,,,,,,,5,47.20001215,99.99999505,1,0,0,response1disk,2,3.200011492,8.799993694,1,0,0,rectangle,3.200011492,8.799993694,1,0,0,1,6,"[276,72,302,31,133,244,183,293,113,316,307,62,258,282,86,262,160,103,130,243]",3.200011492,8.799993694,1,0,0,0,150,149,149,129,1,,,,,,,,,,,,,,,,,,,,,
,,,,,,,,,,,,,,,,,,,,,,,,,,,,,,,,,,,,,,,,,,,5d4857023c661b0001653a5d,5fb7070ae225251d0152f38e,2020-11-20_01h01.24.749,Colour_Similarity_Experiment,2020.1.2,Win32,60,5fb5945709dec70f2d595766,,,,,,,,,,,,,,,,,,,,FF,,,,,,,,7,0.599765,,,,,,,,,,,,,,,,,,,,,,,,,,,,7,37.60006083,80.79999477,1,0,0,response1disk,9,-0.799988568,2.399993598,1,0,0,rectangle,-0.799988568,2.399993598,1,0,0,1,3,"[276,72,302,31,133,244,183,293,113,316,307,62,258,282,86,262,160,103,130,243]",-0.799988568,2.399993598,1,0,0,0,151,150,150,155,1,,,,,,,,,,,,,,,,,,,,,
,,,,,,,,,,,,,,,,,,,,,,,,,,,,,,,,,,,,,,,,,,,5d4857023c661b0001653a5d,5fb7070ae225251d0152f38e,2020-11-20_01h01.24.749,Colour_Similarity_Experiment,2020.1.2,Win32,60,5fb5945709dec70f2d595766,,,,,,,,,,,,,,,,,,,,FF,,,,,,,,7,0.49982,,,,,,,,,,,,,,,,,,,,,,,,,,,,6,37.60006083,77.59999472,1,0,0,response1disk,9,8.000011563,0.799993575,1,0,0,rectangle,8.000011563,0.799993575,1,0,0,1,2,"[276,72,302,31,133,244,183,293,113,316,307,62,258,282,86,262,160,103,130,243]",8.000011563,0.799993575,1,0,0,0,152,151,151,160,1,,,,,,,,,,,,,,,,,,,,,
,,,,,,,,,,,,,,,,,,,,,,,,,,,,,,,,,,,,,,,,,,,5d4857023c661b0001653a5d,5fb7070ae225251d0152f38e,2020-11-20_01h01.24.749,Colour_Similarity_Experiment,2020.1.2,Win32,60,5fb5945709dec70f2d595766,,,,,,,,,,,,,,,,,,,,PF,,,,,,,,7,1.31625,,,,,,,,,,,,,,,,,,,,,,,,,,,,4,44.80001211,85.59999484,1,0,0,response1disk,6,1.14E-05,-10.40000659,1,0,0,rectangle,1.14E-05,-10.40000659,1,0,0,1,4,"[276,72,302,31,133,244,183,293,113,316,307,62,258,282,86,262,160,103,130,243]",1.14E-05,-10.40000659,1,0,0,0,153,152,152,120,1,,,,,,,,,,,,,,,,,,,,,
,,,,,,,,,,,,,,,,,,,,,,,,,,,,,,,,,,,,,,,,,,,5d4857023c661b0001653a5d,5fb7070ae225251d0152f38e,2020-11-20_01h01.24.749,Colour_Similarity_Experiment,2020.1.2,Win32,60,5fb5945709dec70f2d595766,,,,,,,,,,,,,,,,,,,,FF,,,,,,,,5,1.13273,,,,,,,,,,,,,,,,,,,,,,,,,,,,8,84.80001271,-34.40000695,1,0,0,response3disk,9,10.4000116,-9.60000658,1,0,0,rectangle,10.4000116,-9.60000658,1,0,0,1,4,"[276,72,302,31,133,244,183,293,113,316,307,62,258,282,86,262,160,103,130,243]",10.4000116,-9.60000658,1,0,0,0,154,153,153,105,1,,,,,,,,,,,,,,,,,,,,,
,,,,,,,,,,,,,,,,,,,,,,,,,,,,,,,,,,,,,,,,,,,5d4857023c661b0001653a5d,5fb7070ae225251d0152f38e,2020-11-20_01h01.24.749,Colour_Similarity_Experiment,2020.1.2,Win32,60,5fb5945709dec70f2d595766,,,,,,,,,,,,,,,,,,,,PF,,,,,,,,0,1.116285,,,,,,,,,,,,,,,,,,,,,,,,,,,,1,-47.99998927,99.99999505,1,0,0,response7disk,1,5.600060356,0.799993575,1,0,0,rectangle,5.600060356,0.799993575,1,0,0,1,7,"[276,72,302,31,133,244,183,293,113,316,307,62,258,282,86,262,160,103,130,243]",5.600060356,0.799993575,1,0,0,0,155,154,154,76,1,,,,,,,,,,,,,,,,,,,,,
,,,,,,,,,,,,,,,,,,,,,,,,,,,,,,,,,,,,,,,,,,,5d4857023c661b0001653a5d,5fb7070ae225251d0152f38e,2020-11-20_01h01.24.749,Colour_Similarity_Experiment,2020.1.2,Win32,60,5fb5945709dec70f2d595766,,,,,,,,,,,,,,,,,,,,FF,,,,,,,,7,0.698985,,,,,,,,,,,,,,,,,,,,,,,,,,,,2,32.00001192,85.59999484,1,0,0,response1disk,4,-4.799988627,0.799993575,1,0,0,rectangle,-4.799988627,0.799993575,1,0,0,1,1,"[276,72,302,31,133,244,183,293,113,316,307,62,258,282,86,262,160,103,130,243]",-4.799988627,0.799993575,1,0,0,0,156,155,155,145,1,,,,,,,,,,,,,,,,,,,,,
,,,,,,,,,,,,,,,,,,,,,,,,,,,,,,,,,,,,,,,,,,,5d4857023c661b0001653a5d,5fb7070ae225251d0152f38e,2020-11-20_01h01.24.749,Colour_Similarity_Experiment,2020.1.2,Win32,60,5fb5945709dec70f2d595766,,,,,,,,,,,,,,,,,,,,PF,,,,,,,,6,1.06609,,,,,,,,,,,,,,,,,,,,,,,,,,,,9,95.20001286,34.39999408,1,0,0,response1disk,8,-18.39994,-5.600006521,1,0,0,rectangle,-18.39994,-5.600006521,1,0,0,1,6,"[276,72,302,31,133,244,183,293,113,316,307,62,258,282,86,262,160,103,130,243]",-18.39994,-5.600006521,1,0,0,0,157,156,156,67,1,,,,,,,,,,,,,,,,,,,,,
,,,,,,,,,,,,,,,,,,,,,,,,,,,,,,,,,,,,,,,,,,,5d4857023c661b0001653a5d,5fb7070ae225251d0152f38e,2020-11-20_01h01.24.749,Colour_Similarity_Experiment,2020.1.2,Win32,60,5fb5945709dec70f2d595766,,,,,,,,,,,,,,,,,,,,PF,,,,,,,,7,0.916495,,,,,,,,,,,,,,,,,,,,,,,,,,,,7,44.80001211,99.19997063,1,0,0,response1disk,2,-13.59998876,3.19999361,1,0,0,rectangle,-13.59998876,3.19999361,1,0,0,1,6,"[276,72,302,31,133,244,183,293,113,316,307,62,258,282,86,262,160,103,130,243]",-13.59998876,3.19999361,1,0,0,0,158,157,157,32,1,,,,,,,,,,,,,,,,,,,,,
,,,,,,,,,,,,,,,,,,,,,,,,,,,,,,,,,,,,,,,,,,,5d4857023c661b0001653a5d,5fb7070ae225251d0152f38e,2020-11-20_01h01.24.749,Colour_Similarity_Experiment,2020.1.2,Win32,60,5fb5945709dec70f2d595766,,,,,,,,,,,,,,,,,,,,PF,,,,,,,,7,0.68326,,,,,,,,,,,,,,,,,,,,,,,,,,,,5,54.40001225,83.19997039,1,0,0,response1disk,1,6.400011539,3.19999361,1,0,0,rectangle,6.400011539,3.19999361,1,0,0,1,5,"[276,72,302,31,133,244,183,293,113,316,307,62,258,282,86,262,160,103,130,243]",6.400011539,3.19999361,1,0,0,0,159,158,158,159,1,,,,,,,,,,,,,,,,,,,,,
,,,,,,,,,,,,,,,,,,,,,,,,,,,,,,,,,,,,,,,,,,,5d4857023c661b0001653a5d,5fb7070ae225251d0152f38e,2020-11-20_01h01.24.749,Colour_Similarity_Experiment,2020.1.2,Win32,60,5fb5945709dec70f2d595766,,,,,,,,,,,,,,,,,,,,PF,,,,,,,,7,0.66626,,,,,,,,,,,,,,,,,,,,,,,,,,,,9,45.60006095,76.79999471,1,0,0,response1disk,1,-1.59998858,0.799993575,1,0,0,rectangle,32.80001193,-84.8000077,1,0,0,4,4,"[276,72,302,31,133,244,183,293,113,316,307,62,258,282,86,262,160,103,130,243]",8.800011575,-1.600006461,1,0,0,0,160,159,159,74,1,response3disk_3,rectangle,,,,,,,,,,,,,,,,,,,
,,,,,,,,,,,,,,,,,,,,,,,,,,,,,,,,,,,,,,,,,,,5d4857023c661b0001653a5d,5fb7070ae225251d0152f38e,2020-11-20_01h01.24.749,Colour_Similarity_Experiment,2020.1.2,Win32,60,5fb5945709dec70f2d595766,,,,,,,,,,,,,,,,,,,,FF,,,,,,,,7,3.28158,,,,,,,,,,,,,,,,,,,,,,,,,,,,6,37.60006083,99.19997063,1,0,0,response1disk,2,-7.999988675,-0.800006449,1,0,0,rectangle,-7.999988675,-0.800006449,1,0,0,4,4,"[276,72,302,31,133,244,183,293,113,316,307,62,258,282,86,262,160,103,130,243]",-7.999988675,-0.800006449,1,0,0,0,161,160,160,112,1,,,,,,,,,,,,,,,,,,,,,
,,,,,,,,,,,,,,,,,,,,,,,,,,,,,,,,,,,,,,,,,,,5d4857023c661b0001653a5d,5fb7070ae225251d0152f38e,2020-11-20_01h01.24.749,Colour_Similarity_Experiment,2020.1.2,Win32,60,5fb5945709dec70f2d595766,,,,,,,,,,,,,,,,,,,,PF,,,,,,,,7,1.94901,,,,,,,,,,,,,,,,,,,,,,,,,,,,5,46.40001214,75.9999947,1,0,0,response1disk,9,-2.399939764,-0.800006449,1,0,0,rectangle,-2.399939764,-0.800006449,1,0,0,4,7,"[276,72,302,31,133,244,183,293,113,316,307,62,258,282,86,262,160,103,130,243]",-2.399939764,-0.800006449,1,0,0,0,162,161,161,136,1,,,,,,,,,,,,,,,,,,,,,
,,,,,,,,,,,,,,,,,,,,,,,,,,,,,,,,,,,,,,,,,,,5d4857023c661b0001653a5d,5fb7070ae225251d0152f38e,2020-11-20_01h01.24.749,Colour_Similarity_Experiment,2020.1.2,Win32,60,5fb5945709dec70f2d595766,,,,,,,,,,,,,,,,,,,,,,,,,,,,,,,,,,,,,,,,,,,,,,,,,,,,,,,,,,,,,,,,,,,,,,,,,,,,,,,,,,,,,,,,,,,,0,0,0,0,1,,,,,,,,,,,,,,
,,,,,,,,,,,,,,,,,,,,,,,,,,,,,,,,,,,,,,,,,,,5d4857023c661b0001653a5d,5fb7070ae225251d0152f38e,2020-11-20_01h01.24.749,Colour_Similarity_Experiment,2020.1.2,Win32,60,5fb5945709dec70f2d595766,,,,,,,,,,,,,,,,,,,,FF,,,,,,,,6,1.332555,,,,,,,,,,,,,,,,,,,,,,,,,,,,7,100.0000129,45.59999424,1,0,0,response1disk,5,23.20001179,0.799993575,1,0,0,rectangle,23.20001179,0.799993575,1,0,0,4,1,"[276,72,302,31,133,244,183,293,113,316,307,62,258,282,86,262,160,103,130,243]",23.20001179,0.799993575,1,0,0,0,163,0,0,156,1,,,,,,,,,,,,,,,,,,,,,
,,,,,,,,,,,,,,,,,,,,,,,,,,,,,,,,,,,,,,,,,,,5d4857023c661b0001653a5d,5fb7070ae225251d0152f38e,2020-11-20_01h01.24.749,Colour_Similarity_Experiment,2020.1.2,Win32,60,5fb5945709dec70f2d595766,,,,,,,,,,,,,,,,,,,,PF,,,,,,,,7,0.665935,,,,,,,,,,,,,,,,,,,,,,,,,,,,9,47.20001215,87.19997045,1,0,0,response1disk,7,1.600060296,-0.800006449,1,0,0,rectangle,1.600060296,-0.800006449,1,0,0,4,7,"[276,72,302,31,133,244,183,293,113,316,307,62,258,282,86,262,160,103,130,243]",1.600060296,-0.800006449,1,0,0,0,164,1,1,121,1,,,,,,,,,,,,,,,,,,,,,
,,,,,,,,,,,,,,,,,,,,,,,,,,,,,,,,,,,,,,,,,,,5d4857023c661b0001653a5d,5fb7070ae225251d0152f38e,2020-11-20_01h01.24.749,Colour_Similarity_Experiment,2020.1.2,Win32,60,5fb5945709dec70f2d595766,,,,,,,,,,,,,,,,,,,,FF,,,,,,,,7,0.832745,,,,,,,,,,,,,,,,,,,,,,,,,,,,1,37.60006083,82.39999479,1,0,0,response1disk,8,-3.999988616,7.19999367,1,0,0,rectangle,-3.999988616,7.19999367,1,0,0,4,6,"[276,72,302,31,133,244,183,293,113,316,307,62,258,282,86,262,160,103,130,243]",-3.999988616,7.19999367,1,0,0,0,165,2,2,27,1,,,,,,,,,,,,,,,,,,,,,
,,,,,,,,,,,,,,,,,,,,,,,,,,,,,,,,,,,,,,,,,,,5d4857023c661b0001653a5d,5fb7070ae225251d0152f38e,2020-11-20_01h01.24.749,Colour_Similarity_Experiment,2020.1.2,Win32,60,5fb5945709dec70f2d595766,,,,,,,,,,,,,,,,,,,,FF,,,,,,,,7,0.5997,,,,,,,,,,,,,,,,,,,,,,,,,,,,4,44.0000121,69.5999946,1,0,0,response1disk,2,4.000011504,4.799993634,1,0,0,rectangle,4.000011504,4.799993634,1,0,0,4,3,"[276,72,302,31,133,244,183,293,113,316,307,62,258,282,86,262,160,103,130,243]",4.000011504,4.799993634,1,0,0,0,166,3,3,13,1,,,,,,,,,,,,,,,,,,,,,
,,,,,,,,,,,,,,,,,,,,,,,,,,,,,,,,,,,,,,,,,,,5d4857023c661b0001653a5d,5fb7070ae225251d0152f38e,2020-11-20_01h01.24.749,Colour_Similarity_Experiment,2020.1.2,Win32,60,5fb5945709dec70f2d595766,,,,,,,,,,,,,,,,,,,,PF,,,,,,,,0,0.949335,,,,,,,,,,,,,,,,,,,,,,,,,,,,3,-37.59998912,95.19997057,1,0,0,response7disk,3,8.000011563,8.799993694,1,0,0,rectangle,8.000011563,8.799993694,1,0,0,4,7,"[276,72,302,31,133,244,183,293,113,316,307,62,258,282,86,262,160,103,130,243]",8.000011563,8.799993694,1,0,0,0,167,4,4,4,1,,,,,,,,,,,,,,,,,,,,,
,,,,,,,,,,,,,,,,,,,,,,,,,,,,,,,,,,,,,,,,,,,5d4857023c661b0001653a5d,5fb7070ae225251d0152f38e,2020-11-20_01h01.24.749,Colour_Similarity_Experiment,2020.1.2,Win32,60,5fb5945709dec70f2d595766,,,,,,,,,,,,,,,,,,,,FF,,,,,,,,5,2.01599,,,,,,,,,,,,,,,,,,,,,,,,,,,,5,88.00001276,-38.40000701,1,0,0,response3disk,3,11.20001161,7.999993682,1,0,0,rectangle,11.20001161,7.999993682,1,0,0,4,4,"[276,72,302,31,133,244,183,293,113,316,307,62,258,282,86,262,160,103,130,243]",11.20001161,7.999993682,1,0,0,0,168,5,5,25,1,,,,,,,,,,,,,,,,,,,,,
,,,,,,,,,,,,,,,,,,,,,,,,,,,,,,,,,,,,,,,,,,,5d4857023c661b0001653a5d,5fb7070ae225251d0152f38e,2020-11-20_01h01.24.749,Colour_Similarity_Experiment,2020.1.2,Win32,60,5fb5945709dec70f2d595766,,,,,,,,,,,,,,,,,,,,PF,,,,,,,,7,0.832925,,,,,,,,,,,,,,,,,,,,,,,,,,,,8,40.80001205,104.7999951,1,0,0,response1disk,4,2.40001148,-4.800006509,1,0,0,rectangle,2.40001148,-4.800006509,1,0,0,4,7,"[276,72,302,31,133,244,183,293,113,316,307,62,258,282,86,262,160,103,130,243]",2.40001148,-4.800006509,1,0,0,0,169,6,6,78,1,,,,,,,,,,,,,,,,,,,,,
,,,,,,,,,,,,,,,,,,,,,,,,,,,,,,,,,,,,,,,,,,,5d4857023c661b0001653a5d,5fb7070ae225251d0152f38e,2020-11-20_01h01.24.749,Colour_Similarity_Experiment,2020.1.2,Win32,60,5fb5945709dec70f2d595766,,,,,,,,,,,,,,,,,,,,PF,,,,,,,,6,1.099195,,,,,,,,,,,,,,,,,,,,,,,,,,,,5,96.00001287,38.39999413,1,0,0,response1disk,3,1.600060296,-2.400006473,1,0,0,rectangle,1.600060296,-2.400006473,1,0,0,4,7,"[276,72,302,31,133,244,183,293,113,316,307,62,258,282,86,262,160,103,130,243]",1.600060296,-2.400006473,1,0,0,0,170,7,7,109,1,,,,,,,,,,,,,,,,,,,,,
,,,,,,,,,,,,,,,,,,,,,,,,,,,,,,,,,,,,,,,,,,,5d4857023c661b0001653a5d,5fb7070ae225251d0152f38e,2020-11-20_01h01.24.749,Colour_Similarity_Experiment,2020.1.2,Win32,60,5fb5945709dec70f2d595766,,,,,,,,,,,,,,,,,,,,FF,,,,,,,,7,0.599825,,,,,,,,,,,,,,,,,,,,,,,,,,,,7,43.20001209,79.99999475,1,0,0,response1disk,8,1.14E-05,0.799993575,1,0,0,rectangle,1.14E-05,0.799993575,1,0,0,4,3,"[276,72,302,31,133,244,183,293,113,316,307,62,258,282,86,262,160,103,130,243]",1.14E-05,0.799993575,1,0,0,0,171,8,8,97,1,,,,,,,,,,,,,,,,,,,,,
,,,,,,,,,,,,,,,,,,,,,,,,,,,,,,,,,,,,,,,,,,,5d4857023c661b0001653a5d,5fb7070ae225251d0152f38e,2020-11-20_01h01.24.749,Colour_Similarity_Experiment,2020.1.2,Win32,60,5fb5945709dec70f2d595766,,,,,,,,,,,,,,,,,,,,FF,,,,,,,,7,0.616175,,,,,,,,,,,,,,,,,,,,,,,,,,,,9,38.40001202,70.39999461,1,0,0,response1disk,6,1.600060296,0.799993575,1,0,0,rectangle,1.600060296,0.799993575,1,0,0,4,5,"[276,72,302,31,133,244,183,293,113,316,307,62,258,282,86,262,160,103,130,243]",1.600060296,0.799993575,1,0,0,0,172,9,9,117,1,,,,,,,,,,,,,,,,,,,,,
,,,,,,,,,,,,,,,,,,,,,,,,,,,,,,,,,,,,,,,,,,,5d4857023c661b0001653a5d,5fb7070ae225251d0152f38e,2020-11-20_01h01.24.749,Colour_Similarity_Experiment,2020.1.2,Win32,60,5fb5945709dec70f2d595766,,,,,,,,,,,,,,,,,,,,PF,,,,,,,,7,0.583215,,,,,,,,,,,,,,,,,,,,,,,,,,,,3,35.20001197,72.79999465,1,0,0,response1disk,9,0.800011456,5.599993646,1,0,0,rectangle,0.800011456,5.599993646,1,0,0,4,1,"[276,72,302,31,133,244,183,293,113,316,307,62,258,282,86,262,160,103,130,243]",0.800011456,5.599993646,1,0,0,0,173,10,10,79,1,,,,,,,,,,,,,,,,,,,,,
,,,,,,,,,,,,,,,,,,,,,,,,,,,,,,,,,,,,,,,,,,,5d4857023c661b0001653a5d,5fb7070ae225251d0152f38e,2020-11-20_01h01.24.749,Colour_Similarity_Experiment,2020.1.2,Win32,60,5fb5945709dec70f2d595766,,,,,,,,,,,,,,,,,,,,FF,,,,,,,,7,0.782585,,,,,,,,,,,,,,,,,,,,,,,,,,,,3,34.40001196,86.39999485,1,0,0,response1disk,1,-2.399939764,11.99999374,1,0,0,rectangle,-2.399939764,11.99999374,1,0,0,4,5,"[276,72,302,31,133,244,183,293,113,316,307,62,258,282,86,262,160,103,130,243]",-2.399939764,11.99999374,1,0,0,0,174,11,11,125,1,,,,,,,,,,,,,,,,,,,,,
