key_resp.keys,key_resp.rt,key_resp_16.keys,key_resp_16.rt,key_resp_2.keys,key_resp_2.rt,X Scale,ratio_pxpermm,screen_size_x,screen_size_y,testsize,key_resp_3.keys,key_resp_3.rt,key_resp_4.keys,key_resp_4.rt,line_size,key_resp_5.keys,key_resp_5.rt,key_resp_6.keys,key_resp_6.rt,key_resp_8.keys,key_resp_8.rt,key_resp_7.keys,key_resp_7.rt,key_resp_12.keys,key_resp_12.rt,key_resp_11.keys,key_resp_11.rt,key_resp_18.keys,key_resp_18.rt,key_resp_21.keys,key_resp_21.rt,key_resp_13.keys,key_resp_13.rt,key_resp_19.keys,key_resp_19.rt,ballposx,viewer_distance,trials.thisRepN,trials.thisTrialN,trials.thisN,trials.thisIndex,trials.ran,participant,session,date,expName,psychopyVersion,OS,frameRate,study_id,viewerdistancecm,DVA_to_distance,radius_F,radius_P,r_F,R_P,key_resp_20.keys,key_resp_20.rt,key_resp_14.keys,key_resp_14.rt,key_resp_15.keys,key_resp_15.rt,key_resp_17.keys,key_resp_17.rt,key_resp_9.keys,key_resp_9.rt,key_resp_10.keys,key_resp_10.rt,Colour_1,Ecc,mouse_5.x,mouse_5.y,mouse_5.leftButton,mouse_5.midButton,mouse_5.rightButton,mouse_5.clicked_name,Colour_2,similarity,response_time,mouse_10.x,mouse_10.y,mouse_10.leftButton,mouse_10.midButton,mouse_10.rightButton,mouse_10.clicked_name,mouse_7.x,mouse_7.y,mouse_7.leftButton,mouse_7.midButton,mouse_7.rightButton,catchnumberprac,mouse_6.x,mouse_6.y,mouse_6.leftButton,mouse_6.midButton,mouse_6.rightButton,duringprac.thisRepN,duringprac.thisTrialN,duringprac.thisN,duringprac.thisIndex,duringprac.ran,mouse_7.clicked_name,catchprac,mouse_6.clicked_name,key_resp_22.keys,key_resp_22.rt,Colour1,mouse.x,mouse.y,mouse.leftButton,mouse.midButton,mouse.rightButton,mouse.clicked_name,Colour2,mouse_2.x,mouse_2.y,mouse_2.leftButton,mouse_2.midButton,mouse_2.rightButton,mouse_2.clicked_name,mouse_3.x,mouse_3.y,mouse_3.leftButton,mouse_3.midButton,mouse_3.rightButton,catchresponse,catchnumber,catchtrialorder,mouse_11.x,mouse_11.y,mouse_11.leftButton,mouse_11.midButton,mouse_11.rightButton,trials_2.thisRepN,trialnumber,trials_2.thisTrialN,trials_2.thisN,trials_2.thisIndex,trials_2.ran,mouse_3.clicked_name,mouse_11.clicked_name,trials_3.thisRepN,trials_3.thisTrialN,trials_3.thisN,trials_3.thisIndex,trials_3.ran,answer1,rt1,answer2,rt2,answer3,rt3,answer4,rt4,answer5,rt5,answer6,rt6,answer7,rt7
space,1.572,space,10.964,space,5.304,41.3,4.13,464.8910412,261.5012107,1920,space,28.213,space,7.842,82.6,space,6.44,space,2.47,space,2.417,space,3.614,space,5.337,space,7.867,space,4.879,space,5.257,space,13.495,return,6.402,-144,919.7953511,0,0,0,0,1,5db43b6a2f45e7000bb7ab5c,5fb5f14e9cf6752068e776d7,2020-11-19_05h15.33.032,Colour_Similarity_Experiment,2020.1.2,Win32,60,5fb5945709dec70f2d595766,,,,,,,,,,,,,,,,,,,,,,,,,,,,,,,,,,,,,,,,,,,,,,,,,,,,,,,,,,,,,,,,,,,,,,,,,,,,,,,,,,,,,,,,,,,,,,,,,,,,,,,,,,,,,,
,,,,,,,,,,,,,,,,,,,,,,,,,,,,,,,,,,return,5.226,2.88,771.6598893,1,0,1,0,1,5db43b6a2f45e7000bb7ab5c,5fb5f14e9cf6752068e776d7,2020-11-19_05h15.33.032,Colour_Similarity_Experiment,2020.1.2,Win32,60,5fb5945709dec70f2d595766,,,,,,,,,,,,,,,,,,,,,,,,,,,,,,,,,,,,,,,,,,,,,,,,,,,,,,,,,,,,,,,,,,,,,,,,,,,,,,,,,,,,,,,,,,,,,,,,,,,,,,,,,,,,,,
,,,,,,,,,,,,,,,,,,,,,,,,,,,,,,,,,,return,5.985,-97.92,873.3214808,2,0,2,0,1,5db43b6a2f45e7000bb7ab5c,5fb5f14e9cf6752068e776d7,2020-11-19_05h15.33.032,Colour_Similarity_Experiment,2020.1.2,Win32,60,5fb5945709dec70f2d595766,,,,,,,,,,,,,,,,,,,,,,,,,,,,,,,,,,,,,,,,,,,,,,,,,,,,,,,,,,,,,,,,,,,,,,,,,,,,,,,,,,,,,,,,,,,,,,,,,,,,,,,,,,,,,,
,,,,,,,,,,,,,,,,,,,,,,,,,,,,,,,,,,return,5.216,-5.76,780.37374,3,0,3,0,1,5db43b6a2f45e7000bb7ab5c,5fb5f14e9cf6752068e776d7,2020-11-19_05h15.33.032,Colour_Similarity_Experiment,2020.1.2,Win32,60,5fb5945709dec70f2d595766,,,,,,,,,,,,,,,,,,,,,,,,,,,,,,,,,,,,,,,,,,,,,,,,,,,,,,,,,,,,,,,,,,,,,,,,,,,,,,,,,,,,,,,,,,,,,,,,,,,,,,,,,,,,,,
,,,,,,,,,,,,,,,,,,,,,,,,,,,,,,,,,,return,4.993,37.44,736.8044865,4,0,4,0,1,5db43b6a2f45e7000bb7ab5c,5fb5f14e9cf6752068e776d7,2020-11-19_05h15.33.032,Colour_Similarity_Experiment,2020.1.2,Win32,60,5fb5945709dec70f2d595766,,,,,,,,,,,,,,,,,,,,,,,,,,,,,,,,,,,,,,,,,,,,,,,,,,,,,,,,,,,,,,,,,,,,,,,,,,,,,,,,,,,,,,,,,,,,,,,,,,,,,,,,,,,,,,
,,,,,,,,,,,,,,,,,,,,,,,,,,,,,,,,,,,,,,,,,,,5db43b6a2f45e7000bb7ab5c,5fb5f14e9cf6752068e776d7,2020-11-19_05h15.33.032,Colour_Similarity_Experiment,2020.1.2,Win32,60,5fb5945709dec70f2d595766,82,14.31314812,88.66995262,591.1330174,59.11330174,266.0098579,space,2.928,space,27.93,space,11.364,space,3.565,space,3.382,space,2.927,9,FF,106,49,1,0,0,response1disk_5,4,6,5.635,12,-3,1,0,0,rectangle_8,12,-3,1,0,0,0,12,-3,1,0,0,0,0,0,3,1,,,,,,,,,,,,,,,,,,,,,,,,,,,,,,,,,,,,,,,,,,,,,,,,,,,,,,,,,,,
,,,,,,,,,,,,,,,,,,,,,,,,,,,,,,,,,,,,,,,,,,,5db43b6a2f45e7000bb7ab5c,5fb5f14e9cf6752068e776d7,2020-11-19_05h15.33.032,Colour_Similarity_Experiment,2020.1.2,Win32,60,5fb5945709dec70f2d595766,,,,,,,,,,,,,,,,,,,5,PF,47,-95,1,0,0,response3disk_5,9,4,3.567,4,-1,1,0,0,rectangle_8,4,-1,1,0,0,0,4,-1,1,0,0,0,1,1,6,1,,,,,,,,,,,,,,,,,,,,,,,,,,,,,,,,,,,,,,,,,,,,,,,,,,,,,,,,,,,
,,,,,,,,,,,,,,,,,,,,,,,,,,,,,,,,,,,,,,,,,,,5db43b6a2f45e7000bb7ab5c,5fb5f14e9cf6752068e776d7,2020-11-19_05h15.33.032,Colour_Similarity_Experiment,2020.1.2,Win32,60,5fb5945709dec70f2d595766,,,,,,,,,,,,,,,,,,,3,FF,-93,30,1,0,0,response7disk_5,2,1,2.084,-9,0,1,0,0,rectangle_8,-40,161,1,0,0,0,2,15,1,0,0,0,2,2,5,1,response7disk_7,0,rectangle_4,,,,,,,,,,,,,,,,,,,,,,,,,,,,,,,,,,,,,,,,,,,,,,,,,,,,,,,,
,,,,,,,,,,,,,,,,,,,,,,,,,,,,,,,,,,,,,,,,,,,5db43b6a2f45e7000bb7ab5c,5fb5f14e9cf6752068e776d7,2020-11-19_05h15.33.032,Colour_Similarity_Experiment,2020.1.2,Win32,60,5fb5945709dec70f2d595766,,,,,,,,,,,,,,,,,,,4,PF,83,33,1,0,0,response1disk_5,8,6,1.825,-25,-12,1,0,0,rectangle_8,-33,101,1,0,0,0,-14,-7,1,0,0,0,3,3,4,1,response7disk_7,0,rectangle_4,,,,,,,,,,,,,,,,,,,,,,,,,,,,,,,,,,,,,,,,,,,,,,,,,,,,,,,,
,,,,,,,,,,,,,,,,,,,,,,,,,,,,,,,,,,,,,,,,,,,5db43b6a2f45e7000bb7ab5c,5fb5f14e9cf6752068e776d7,2020-11-19_05h15.33.032,Colour_Similarity_Experiment,2020.1.2,Win32,60,5fb5945709dec70f2d595766,,,,,,,,,,,,,,,,,,,2,PF,72,-50,1,0,0,response3disk_5,7,5,1.984,7,-20,1,0,0,rectangle_8,7,-20,1,0,0,0,7,-20,1,0,0,0,4,4,1,1,,,,,,,,,,,,,,,,,,,,,,,,,,,,,,,,,,,,,,,,,,,,,,,,,,,,,,,,,,,
,,,,,,,,,,,,,,,,,,,,,,,,,,,,,,,,,,,,,,,,,,,5db43b6a2f45e7000bb7ab5c,5fb5f14e9cf6752068e776d7,2020-11-19_05h15.33.032,Colour_Similarity_Experiment,2020.1.2,Win32,60,5fb5945709dec70f2d595766,,,,,,,,,,,,,,,,,,,6,PF,-129,52,1,0,0,response7disk_5,7,1,1.466,-15,5,1,0,0,rectangle_8,-15,5,1,0,0,0,-15,5,1,0,0,0,5,5,2,1,,,,,,,,,,,,,,,,,,,,,,,,,,,,,,,,,,,,,,,,,,,,,,,,,,,,,,,,,,,
,,,,,,,,,,,,,,,,,,,,,,,,,,,,,,,,,,,,,,,,,,,5db43b6a2f45e7000bb7ab5c,5fb5f14e9cf6752068e776d7,2020-11-19_05h15.33.032,Colour_Similarity_Experiment,2020.1.2,Win32,60,5fb5945709dec70f2d595766,,,,,,,,,,,,,,,,,,,5,FF,33,-103,1,0,0,response3disk_5,8,4,1.5,-21,-6,1,0,0,rectangle_8,-21,-6,1,0,0,0,-21,-6,1,0,0,0,6,6,0,1,,,,,,,,,,,,,,,,,,,,,,,,,,,,,,,,,,,,,,,,,,,,,,,,,,,,,,,,,,,
,,,,,,,,,,,,,,,,,,,,,,,,,,,,,,,,,,,,,,,,,,,5db43b6a2f45e7000bb7ab5c,5fb5f14e9cf6752068e776d7,2020-11-19_05h15.33.032,Colour_Similarity_Experiment,2020.1.2,Win32,60,5fb5945709dec70f2d595766,,,,,,,,,,,,,,,,,,,,PF,,,,,,,,3,1.6,,,,,,,,,,,,,,,,,,,,,,,,,,space,3.37,7,-28,-88,1,0,0,response5disk,3,24,3,1,0,0,rectangle,24,3,1,0,0,,0,"[194,66,46,191,122,18,180,70,148,30,165,120,117,196,248,111,12,28,121,190]",24,3,1,0,0,0,1,0,0,81,1,,,,,,,,,,,,,,,,,,,,,
,,,,,,,,,,,,,,,,,,,,,,,,,,,,,,,,,,,,,,,,,,,5db43b6a2f45e7000bb7ab5c,5fb5f14e9cf6752068e776d7,2020-11-19_05h15.33.032,Colour_Similarity_Experiment,2020.1.2,Win32,60,5fb5945709dec70f2d595766,,,,,,,,,,,,,,,,,,,,PF,,,,,,,,3,2.049,,,,,,,,,,,,,,,,,,,,,,,,,,,,8,-80,-82,1,0,0,response5disk,7,16,-7,1,0,0,rectangle,16,-7,1,0,0,,2,"[194,66,46,191,122,18,180,70,148,30,165,120,117,196,248,111,12,28,121,190]",16,-7,1,0,0,0,2,1,1,23,1,,,,,,,,,,,,,,,,,,,,,
,,,,,,,,,,,,,,,,,,,,,,,,,,,,,,,,,,,,,,,,,,,5db43b6a2f45e7000bb7ab5c,5fb5f14e9cf6752068e776d7,2020-11-19_05h15.33.032,Colour_Similarity_Experiment,2020.1.2,Win32,60,5fb5945709dec70f2d595766,,,,,,,,,,,,,,,,,,,,FF,,,,,,,,3,2.984,,,,,,,,,,,,,,,,,,,,,,,,,,,,8,-50,-105,1,0,0,response5disk,6,0,-11,1,0,0,rectangle,0,-11,1,0,0,,1,"[194,66,46,191,122,18,180,70,148,30,165,120,117,196,248,111,12,28,121,190]",0,-11,1,0,0,0,3,2,2,37,1,,,,,,,,,,,,,,,,,,,,,
,,,,,,,,,,,,,,,,,,,,,,,,,,,,,,,,,,,,,,,,,,,5db43b6a2f45e7000bb7ab5c,5fb5f14e9cf6752068e776d7,2020-11-19_05h15.33.032,Colour_Similarity_Experiment,2020.1.2,Win32,60,5fb5945709dec70f2d595766,,,,,,,,,,,,,,,,,,,,FF,,,,,,,,2,3.784,,,,,,,,,,,,,,,,,,,,,,,,,,,,1,-58,-47,1,0,0,response5disk,8,11,-5,1,0,0,rectangle,11,-5,1,0,0,,2,"[194,66,46,191,122,18,180,70,148,30,165,120,117,196,248,111,12,28,121,190]",11,-5,1,0,0,0,4,3,3,27,1,,,,,,,,,,,,,,,,,,,,,
,,,,,,,,,,,,,,,,,,,,,,,,,,,,,,,,,,,,,,,,,,,5db43b6a2f45e7000bb7ab5c,5fb5f14e9cf6752068e776d7,2020-11-19_05h15.33.032,Colour_Similarity_Experiment,2020.1.2,Win32,60,5fb5945709dec70f2d595766,,,,,,,,,,,,,,,,,,,,FF,,,,,,,,0,1.179,,,,,,,,,,,,,,,,,,,,,,,,,,,,7,-40,114,1,0,0,response7disk,7,-4,-7,1,0,0,rectangle,-4,-7,1,0,0,,0,"[194,66,46,191,122,18,180,70,148,30,165,120,117,196,248,111,12,28,121,190]",-4,-7,1,0,0,0,5,4,4,34,1,,,,,,,,,,,,,,,,,,,,,
,,,,,,,,,,,,,,,,,,,,,,,,,,,,,,,,,,,,,,,,,,,5db43b6a2f45e7000bb7ab5c,5fb5f14e9cf6752068e776d7,2020-11-19_05h15.33.032,Colour_Similarity_Experiment,2020.1.2,Win32,60,5fb5945709dec70f2d595766,,,,,,,,,,,,,,,,,,,,FF,,,,,,,,5,1.682,,,,,,,,,,,,,,,,,,,,,,,,,,,,7,68,-51,1,0,0,response3disk,2,6,-13,1,0,0,rectangle,6,-13,1,0,0,,1,"[194,66,46,191,122,18,180,70,148,30,165,120,117,196,248,111,12,28,121,190]",6,-13,1,0,0,0,6,5,5,138,1,,,,,,,,,,,,,,,,,,,,,
,,,,,,,,,,,,,,,,,,,,,,,,,,,,,,,,,,,,,,,,,,,5db43b6a2f45e7000bb7ab5c,5fb5f14e9cf6752068e776d7,2020-11-19_05h15.33.032,Colour_Similarity_Experiment,2020.1.2,Win32,60,5fb5945709dec70f2d595766,,,,,,,,,,,,,,,,,,,,PF,,,,,,,,4,1.75,,,,,,,,,,,,,,,,,,,,,,,,,,,,9,43,-45,1,0,0,response3disk,3,-15,13,1,0,0,rectangle,-15,13,1,0,0,,1,"[194,66,46,191,122,18,180,70,148,30,165,120,117,196,248,111,12,28,121,190]",-15,13,1,0,0,0,7,6,6,119,1,,,,,,,,,,,,,,,,,,,,,
,,,,,,,,,,,,,,,,,,,,,,,,,,,,,,,,,,,,,,,,,,,5db43b6a2f45e7000bb7ab5c,5fb5f14e9cf6752068e776d7,2020-11-19_05h15.33.032,Colour_Similarity_Experiment,2020.1.2,Win32,60,5fb5945709dec70f2d595766,,,,,,,,,,,,,,,,,,,,PF,,,,,,,,4,1.283,,,,,,,,,,,,,,,,,,,,,,,,,,,,6,38,-80,1,0,0,response3disk,8,2,-2,1,0,0,rectangle,2,-2,1,0,0,,0,"[194,66,46,191,122,18,180,70,148,30,165,120,117,196,248,111,12,28,121,190]",2,-2,1,0,0,0,8,7,7,64,1,,,,,,,,,,,,,,,,,,,,,
,,,,,,,,,,,,,,,,,,,,,,,,,,,,,,,,,,,,,,,,,,,5db43b6a2f45e7000bb7ab5c,5fb5f14e9cf6752068e776d7,2020-11-19_05h15.33.032,Colour_Similarity_Experiment,2020.1.2,Win32,60,5fb5945709dec70f2d595766,,,,,,,,,,,,,,,,,,,,FF,,,,,,,,3,1.517,,,,,,,,,,,,,,,,,,,,,,,,,,,,3,-37,-94,1,0,0,response5disk,6,-4,-19,1,0,0,rectangle,-4,-19,1,0,0,,5,"[194,66,46,191,122,18,180,70,148,30,165,120,117,196,248,111,12,28,121,190]",-4,-19,1,0,0,0,9,8,8,95,1,,,,,,,,,,,,,,,,,,,,,
,,,,,,,,,,,,,,,,,,,,,,,,,,,,,,,,,,,,,,,,,,,5db43b6a2f45e7000bb7ab5c,5fb5f14e9cf6752068e776d7,2020-11-19_05h15.33.032,Colour_Similarity_Experiment,2020.1.2,Win32,60,5fb5945709dec70f2d595766,,,,,,,,,,,,,,,,,,,,FF,,,,,,,,5,1.101,,,,,,,,,,,,,,,,,,,,,,,,,,,,5,71,-44,1,0,0,response3disk,8,13,-2,1,0,0,rectangle,13,-2,1,0,0,,5,"[194,66,46,191,122,18,180,70,148,30,165,120,117,196,248,111,12,28,121,190]",13,-2,1,0,0,0,10,9,9,16,1,,,,,,,,,,,,,,,,,,,,,
,,,,,,,,,,,,,,,,,,,,,,,,,,,,,,,,,,,,,,,,,,,5db43b6a2f45e7000bb7ab5c,5fb5f14e9cf6752068e776d7,2020-11-19_05h15.33.032,Colour_Similarity_Experiment,2020.1.2,Win32,60,5fb5945709dec70f2d595766,,,,,,,,,,,,,,,,,,,,PF,,,,,,,,2,2.334,,,,,,,,,,,,,,,,,,,,,,,,,,,,7,-61,-40,1,0,0,response5disk,4,-11,-9,1,0,0,rectangle,-11,-9,1,0,0,,2,"[194,66,46,191,122,18,180,70,148,30,165,120,117,196,248,111,12,28,121,190]",-11,-9,1,0,0,0,11,10,10,43,1,,,,,,,,,,,,,,,,,,,,,
,,,,,,,,,,,,,,,,,,,,,,,,,,,,,,,,,,,,,,,,,,,5db43b6a2f45e7000bb7ab5c,5fb5f14e9cf6752068e776d7,2020-11-19_05h15.33.032,Colour_Similarity_Experiment,2020.1.2,Win32,60,5fb5945709dec70f2d595766,,,,,,,,,,,,,,,,,,,,FF,,,,,,,,3,1.283,,,,,,,,,,,,,,,,,,,,,,,,,,,,6,-38,-70,1,0,0,response5disk,9,-3,-4,1,0,0,rectangle,-104,54,1,0,0,1,1,"[194,66,46,191,122,18,180,70,148,30,165,120,117,196,248,111,12,28,121,190]",-10,-5,1,0,0,0,12,11,11,160,1,response7disk_3,rectangle,,,,,,,,,,,,,,,,,,,
,,,,,,,,,,,,,,,,,,,,,,,,,,,,,,,,,,,,,,,,,,,5db43b6a2f45e7000bb7ab5c,5fb5f14e9cf6752068e776d7,2020-11-19_05h15.33.032,Colour_Similarity_Experiment,2020.1.2,Win32,60,5fb5945709dec70f2d595766,,,,,,,,,,,,,,,,,,,,PF,,,,,,,,2,1.57,,,,,,,,,,,,,,,,,,,,,,,,,,,,5,-92,-56,1,0,0,response5disk,6,-14,-10,1,0,0,rectangle,-14,-10,1,0,0,1,1,"[194,66,46,191,122,18,180,70,148,30,165,120,117,196,248,111,12,28,121,190]",-14,-10,1,0,0,0,13,12,12,103,1,,,,,,,,,,,,,,,,,,,,,
,,,,,,,,,,,,,,,,,,,,,,,,,,,,,,,,,,,,,,,,,,,5db43b6a2f45e7000bb7ab5c,5fb5f14e9cf6752068e776d7,2020-11-19_05h15.33.032,Colour_Similarity_Experiment,2020.1.2,Win32,60,5fb5945709dec70f2d595766,,,,,,,,,,,,,,,,,,,,FF,,,,,,,,4,1.168,,,,,,,,,,,,,,,,,,,,,,,,,,,,4,45,-71,1,0,0,response3disk,2,0,-4,1,0,0,rectangle,0,-4,1,0,0,1,3,"[194,66,46,191,122,18,180,70,148,30,165,120,117,196,248,111,12,28,121,190]",0,-4,1,0,0,0,14,13,13,13,1,,,,,,,,,,,,,,,,,,,,,
,,,,,,,,,,,,,,,,,,,,,,,,,,,,,,,,,,,,,,,,,,,5db43b6a2f45e7000bb7ab5c,5fb5f14e9cf6752068e776d7,2020-11-19_05h15.33.032,Colour_Similarity_Experiment,2020.1.2,Win32,60,5fb5945709dec70f2d595766,,,,,,,,,,,,,,,,,,,,PF,,,,,,,,2,1.1,,,,,,,,,,,,,,,,,,,,,,,,,,,,7,-95,-38,1,0,0,response5disk,6,-7,0,1,0,0,rectangle,-7,0,1,0,0,1,4,"[194,66,46,191,122,18,180,70,148,30,165,120,117,196,248,111,12,28,121,190]",-7,0,1,0,0,0,15,14,14,29,1,,,,,,,,,,,,,,,,,,,,,
,,,,,,,,,,,,,,,,,,,,,,,,,,,,,,,,,,,,,,,,,,,5db43b6a2f45e7000bb7ab5c,5fb5f14e9cf6752068e776d7,2020-11-19_05h15.33.032,Colour_Similarity_Experiment,2020.1.2,Win32,60,5fb5945709dec70f2d595766,,,,,,,,,,,,,,,,,,,,PF,,,,,,,,3,1.017,,,,,,,,,,,,,,,,,,,,,,,,,,,,7,-40,-76,1,0,0,response5disk,8,-19,-4,1,0,0,rectangle,-19,-4,1,0,0,1,1,"[194,66,46,191,122,18,180,70,148,30,165,120,117,196,248,111,12,28,121,190]",-19,-4,1,0,0,0,16,15,15,140,1,,,,,,,,,,,,,,,,,,,,,
,,,,,,,,,,,,,,,,,,,,,,,,,,,,,,,,,,,,,,,,,,,5db43b6a2f45e7000bb7ab5c,5fb5f14e9cf6752068e776d7,2020-11-19_05h15.33.032,Colour_Similarity_Experiment,2020.1.2,Win32,60,5fb5945709dec70f2d595766,,,,,,,,,,,,,,,,,,,,FF,,,,,,,,0,1.117,,,,,,,,,,,,,,,,,,,,,,,,,,,,2,-52,90,1,0,0,response7disk,2,-12,-10,1,0,0,rectangle,-12,-10,1,0,0,1,2,"[194,66,46,191,122,18,180,70,148,30,165,120,117,196,248,111,12,28,121,190]",-12,-10,1,0,0,0,17,16,16,142,1,,,,,,,,,,,,,,,,,,,,,
,,,,,,,,,,,,,,,,,,,,,,,,,,,,,,,,,,,,,,,,,,,5db43b6a2f45e7000bb7ab5c,5fb5f14e9cf6752068e776d7,2020-11-19_05h15.33.032,Colour_Similarity_Experiment,2020.1.2,Win32,60,5fb5945709dec70f2d595766,,,,,,,,,,,,,,,,,,,,PF,,,,,,,,2,1.95,,,,,,,,,,,,,,,,,,,,,,,,,,,,6,-86,-47,1,0,0,response5disk,9,4,-1,1,0,0,rectangle,-88,42,1,0,0,1,1,"[194,66,46,191,122,18,180,70,148,30,165,120,117,196,248,111,12,28,121,190]",-24,19,1,0,0,0,18,17,17,45,1,response7disk_3,rectangle,,,,,,,,,,,,,,,,,,,
,,,,,,,,,,,,,,,,,,,,,,,,,,,,,,,,,,,,,,,,,,,5db43b6a2f45e7000bb7ab5c,5fb5f14e9cf6752068e776d7,2020-11-19_05h15.33.032,Colour_Similarity_Experiment,2020.1.2,Win32,60,5fb5945709dec70f2d595766,,,,,,,,,,,,,,,,,,,,FF,,,,,,,,3,1.999,,,,,,,,,,,,,,,,,,,,,,,,,,,,9,-45,-109,1,0,0,response5disk,6,5,-11,1,0,0,rectangle,5,-11,1,0,0,1,5,"[194,66,46,191,122,18,180,70,148,30,165,120,117,196,248,111,12,28,121,190]",5,-11,1,0,0,0,19,18,18,117,1,,,,,,,,,,,,,,,,,,,,,
,,,,,,,,,,,,,,,,,,,,,,,,,,,,,,,,,,,,,,,,,,,5db43b6a2f45e7000bb7ab5c,5fb5f14e9cf6752068e776d7,2020-11-19_05h15.33.032,Colour_Similarity_Experiment,2020.1.2,Win32,60,5fb5945709dec70f2d595766,,,,,,,,,,,,,,,,,,,,FF,,,,,,,,5,3.209,,,,,,,,,,,,,,,,,,,,,,,,,,,,3,105,-35,1,0,0,response3disk,7,20,-18,1,0,0,rectangle,20,-18,1,0,0,1,1,"[194,66,46,191,122,18,180,70,148,30,165,120,117,196,248,111,12,28,121,190]",20,-18,1,0,0,0,20,19,19,118,1,,,,,,,,,,,,,,,,,,,,,
,,,,,,,,,,,,,,,,,,,,,,,,,,,,,,,,,,,,,,,,,,,5db43b6a2f45e7000bb7ab5c,5fb5f14e9cf6752068e776d7,2020-11-19_05h15.33.032,Colour_Similarity_Experiment,2020.1.2,Win32,60,5fb5945709dec70f2d595766,,,,,,,,,,,,,,,,,,,,PF,,,,,,,,2,2.417,,,,,,,,,,,,,,,,,,,,,,,,,,,,4,-97,-53,1,0,0,response5disk,5,-19,0,1,0,0,rectangle,-19,0,1,0,0,1,4,"[194,66,46,191,122,18,180,70,148,30,165,120,117,196,248,111,12,28,121,190]",-19,0,1,0,0,0,21,20,20,49,1,,,,,,,,,,,,,,,,,,,,,
,,,,,,,,,,,,,,,,,,,,,,,,,,,,,,,,,,,,,,,,,,,5db43b6a2f45e7000bb7ab5c,5fb5f14e9cf6752068e776d7,2020-11-19_05h15.33.032,Colour_Similarity_Experiment,2020.1.2,Win32,60,5fb5945709dec70f2d595766,,,,,,,,,,,,,,,,,,,,FF,,,,,,,,3,1.45,,,,,,,,,,,,,,,,,,,,,,,,,,,,9,-36,-87,1,0,0,response5disk,7,-4,-18,1,0,0,rectangle,-4,-18,1,0,0,1,6,"[194,66,46,191,122,18,180,70,148,30,165,120,117,196,248,111,12,28,121,190]",-4,-18,1,0,0,0,22,21,21,100,1,,,,,,,,,,,,,,,,,,,,,
,,,,,,,,,,,,,,,,,,,,,,,,,,,,,,,,,,,,,,,,,,,5db43b6a2f45e7000bb7ab5c,5fb5f14e9cf6752068e776d7,2020-11-19_05h15.33.032,Colour_Similarity_Experiment,2020.1.2,Win32,60,5fb5945709dec70f2d595766,,,,,,,,,,,,,,,,,,,,PF,,,,,,,,0,0.85,,,,,,,,,,,,,,,,,,,,,,,,,,,,7,-54,135,1,0,0,response7disk,7,2,-18,1,0,0,rectangle,2,-18,1,0,0,1,2,"[194,66,46,191,122,18,180,70,148,30,165,120,117,196,248,111,12,28,121,190]",2,-18,1,0,0,0,23,22,22,51,1,,,,,,,,,,,,,,,,,,,,,
,,,,,,,,,,,,,,,,,,,,,,,,,,,,,,,,,,,,,,,,,,,5db43b6a2f45e7000bb7ab5c,5fb5f14e9cf6752068e776d7,2020-11-19_05h15.33.032,Colour_Similarity_Experiment,2020.1.2,Win32,60,5fb5945709dec70f2d595766,,,,,,,,,,,,,,,,,,,,FF,,,,,,,,2,1.99,,,,,,,,,,,,,,,,,,,,,,,,,,,,5,-125,-41,1,0,0,response5disk,6,-25,2,1,0,0,rectangle,-25,2,1,0,0,1,4,"[194,66,46,191,122,18,180,70,148,30,165,120,117,196,248,111,12,28,121,190]",-25,2,1,0,0,0,24,23,23,12,1,,,,,,,,,,,,,,,,,,,,,
,,,,,,,,,,,,,,,,,,,,,,,,,,,,,,,,,,,,,,,,,,,5db43b6a2f45e7000bb7ab5c,5fb5f14e9cf6752068e776d7,2020-11-19_05h15.33.032,Colour_Similarity_Experiment,2020.1.2,Win32,60,5fb5945709dec70f2d595766,,,,,,,,,,,,,,,,,,,,PF,,,,,,,,5,1.083,,,,,,,,,,,,,,,,,,,,,,,,,,,,5,76,-45,1,0,0,response3disk,8,-1,-2,1,0,0,rectangle,-1,-2,1,0,0,1,5,"[194,66,46,191,122,18,180,70,148,30,165,120,117,196,248,111,12,28,121,190]",-1,-2,1,0,0,0,25,24,24,149,1,,,,,,,,,,,,,,,,,,,,,
,,,,,,,,,,,,,,,,,,,,,,,,,,,,,,,,,,,,,,,,,,,5db43b6a2f45e7000bb7ab5c,5fb5f14e9cf6752068e776d7,2020-11-19_05h15.33.032,Colour_Similarity_Experiment,2020.1.2,Win32,60,5fb5945709dec70f2d595766,,,,,,,,,,,,,,,,,,,,PF,,,,,,,,6,1.188,,,,,,,,,,,,,,,,,,,,,,,,,,,,2,124,58,1,0,0,response1disk,7,-21,-10,1,0,0,rectangle,-21,-10,1,0,0,1,3,"[194,66,46,191,122,18,180,70,148,30,165,120,117,196,248,111,12,28,121,190]",-21,-10,1,0,0,0,26,25,25,107,1,,,,,,,,,,,,,,,,,,,,,
,,,,,,,,,,,,,,,,,,,,,,,,,,,,,,,,,,,,,,,,,,,5db43b6a2f45e7000bb7ab5c,5fb5f14e9cf6752068e776d7,2020-11-19_05h15.33.032,Colour_Similarity_Experiment,2020.1.2,Win32,60,5fb5945709dec70f2d595766,,,,,,,,,,,,,,,,,,,,FF,,,,,,,,0,1.067,,,,,,,,,,,,,,,,,,,,,,,,,,,,1,-64,144,1,0,0,response7disk,1,-7,-15,1,0,0,rectangle,-7,-15,1,0,0,1,6,"[194,66,46,191,122,18,180,70,148,30,165,120,117,196,248,111,12,28,121,190]",-7,-15,1,0,0,0,27,26,26,151,1,,,,,,,,,,,,,,,,,,,,,
,,,,,,,,,,,,,,,,,,,,,,,,,,,,,,,,,,,,,,,,,,,5db43b6a2f45e7000bb7ab5c,5fb5f14e9cf6752068e776d7,2020-11-19_05h15.33.032,Colour_Similarity_Experiment,2020.1.2,Win32,60,5fb5945709dec70f2d595766,,,,,,,,,,,,,,,,,,,,PF,,,,,,,,5,1.473,,,,,,,,,,,,,,,,,,,,,,,,,,,,8,89,-47,1,0,0,response3disk,4,22,-9,1,0,0,rectangle,-55,-129,1,0,0,3,3,"[194,66,46,191,122,18,180,70,148,30,165,120,117,196,248,111,12,28,121,190]",21,-1,1,0,0,0,28,27,27,78,1,response5disk_3,rectangle,,,,,,,,,,,,,,,,,,,
,,,,,,,,,,,,,,,,,,,,,,,,,,,,,,,,,,,,,,,,,,,5db43b6a2f45e7000bb7ab5c,5fb5f14e9cf6752068e776d7,2020-11-19_05h15.33.032,Colour_Similarity_Experiment,2020.1.2,Win32,60,5fb5945709dec70f2d595766,,,,,,,,,,,,,,,,,,,,FF,,,,,,,,4,2.887,,,,,,,,,,,,,,,,,,,,,,,,,,,,6,39,-107,1,0,0,response3disk,4,5,-4,1,0,0,rectangle,5,-4,1,0,0,3,7,"[194,66,46,191,122,18,180,70,148,30,165,120,117,196,248,111,12,28,121,190]",5,-4,1,0,0,0,29,28,28,56,1,,,,,,,,,,,,,,,,,,,,,
,,,,,,,,,,,,,,,,,,,,,,,,,,,,,,,,,,,,,,,,,,,5db43b6a2f45e7000bb7ab5c,5fb5f14e9cf6752068e776d7,2020-11-19_05h15.33.032,Colour_Similarity_Experiment,2020.1.2,Win32,60,5fb5945709dec70f2d595766,,,,,,,,,,,,,,,,,,,,PF,,,,,,,,3,1.166,,,,,,,,,,,,,,,,,,,,,,,,,,,,6,-68,-89,1,0,0,response5disk,3,-19,-8,1,0,0,rectangle,44,-129,1,0,0,4,4,"[194,66,46,191,122,18,180,70,148,30,165,120,117,196,248,111,12,28,121,190]",24,-1,1,0,0,0,30,29,29,26,1,response3disk_3,rectangle,,,,,,,,,,,,,,,,,,,
,,,,,,,,,,,,,,,,,,,,,,,,,,,,,,,,,,,,,,,,,,,5db43b6a2f45e7000bb7ab5c,5fb5f14e9cf6752068e776d7,2020-11-19_05h15.33.032,Colour_Similarity_Experiment,2020.1.2,Win32,60,5fb5945709dec70f2d595766,,,,,,,,,,,,,,,,,,,,PF,,,,,,,,5,1.733,,,,,,,,,,,,,,,,,,,,,,,,,,,,4,126,-48,1,0,0,response3disk,8,26,-15,1,0,0,rectangle,26,-15,1,0,0,4,6,"[194,66,46,191,122,18,180,70,148,30,165,120,117,196,248,111,12,28,121,190]",26,-15,1,0,0,0,31,30,30,124,1,,,,,,,,,,,,,,,,,,,,,
,,,,,,,,,,,,,,,,,,,,,,,,,,,,,,,,,,,,,,,,,,,5db43b6a2f45e7000bb7ab5c,5fb5f14e9cf6752068e776d7,2020-11-19_05h15.33.032,Colour_Similarity_Experiment,2020.1.2,Win32,60,5fb5945709dec70f2d595766,,,,,,,,,,,,,,,,,,,,FF,,,,,,,,2,1.45,,,,,,,,,,,,,,,,,,,,,,,,,,,,7,-84,-46,1,0,0,response5disk,6,-15,3,1,0,0,rectangle,-15,3,1,0,0,4,1,"[194,66,46,191,122,18,180,70,148,30,165,120,117,196,248,111,12,28,121,190]",-15,3,1,0,0,0,32,31,31,31,1,,,,,,,,,,,,,,,,,,,,,
,,,,,,,,,,,,,,,,,,,,,,,,,,,,,,,,,,,,,,,,,,,5db43b6a2f45e7000bb7ab5c,5fb5f14e9cf6752068e776d7,2020-11-19_05h15.33.032,Colour_Similarity_Experiment,2020.1.2,Win32,60,5fb5945709dec70f2d595766,,,,,,,,,,,,,,,,,,,,FF,,,,,,,,5,2.767,,,,,,,,,,,,,,,,,,,,,,,,,,,,2,98,-29,1,0,0,response3disk,6,15,1,1,0,0,rectangle,15,1,1,0,0,4,3,"[194,66,46,191,122,18,180,70,148,30,165,120,117,196,248,111,12,28,121,190]",15,1,1,0,0,0,33,32,32,40,1,,,,,,,,,,,,,,,,,,,,,
,,,,,,,,,,,,,,,,,,,,,,,,,,,,,,,,,,,,,,,,,,,5db43b6a2f45e7000bb7ab5c,5fb5f14e9cf6752068e776d7,2020-11-19_05h15.33.032,Colour_Similarity_Experiment,2020.1.2,Win32,60,5fb5945709dec70f2d595766,,,,,,,,,,,,,,,,,,,,FF,,,,,,,,3,1.383,,,,,,,,,,,,,,,,,,,,,,,,,,,,6,-48,-63,1,0,0,response5disk,3,-18,-6,1,0,0,rectangle,-18,-6,1,0,0,4,2,"[194,66,46,191,122,18,180,70,148,30,165,120,117,196,248,111,12,28,121,190]",-18,-6,1,0,0,0,34,33,33,21,1,,,,,,,,,,,,,,,,,,,,,
,,,,,,,,,,,,,,,,,,,,,,,,,,,,,,,,,,,,,,,,,,,5db43b6a2f45e7000bb7ab5c,5fb5f14e9cf6752068e776d7,2020-11-19_05h15.33.032,Colour_Similarity_Experiment,2020.1.2,Win32,60,5fb5945709dec70f2d595766,,,,,,,,,,,,,,,,,,,,FF,,,,,,,,5,1.656,,,,,,,,,,,,,,,,,,,,,,,,,,,,6,79,-49,1,0,0,response3disk,2,1,12,1,0,0,rectangle,1,12,1,0,0,4,5,"[194,66,46,191,122,18,180,70,148,30,165,120,117,196,248,111,12,28,121,190]",1,12,1,0,0,0,35,34,34,112,1,,,,,,,,,,,,,,,,,,,,,
,,,,,,,,,,,,,,,,,,,,,,,,,,,,,,,,,,,,,,,,,,,5db43b6a2f45e7000bb7ab5c,5fb5f14e9cf6752068e776d7,2020-11-19_05h15.33.032,Colour_Similarity_Experiment,2020.1.2,Win32,60,5fb5945709dec70f2d595766,,,,,,,,,,,,,,,,,,,,PF,,,,,,,,5,1.034,,,,,,,,,,,,,,,,,,,,,,,,,,,,7,103,-43,1,0,0,response3disk,2,17,-1,1,0,0,rectangle,17,-1,1,0,0,4,7,"[194,66,46,191,122,18,180,70,148,30,165,120,117,196,248,111,12,28,121,190]",17,-1,1,0,0,0,36,35,35,32,1,,,,,,,,,,,,,,,,,,,,,
,,,,,,,,,,,,,,,,,,,,,,,,,,,,,,,,,,,,,,,,,,,5db43b6a2f45e7000bb7ab5c,5fb5f14e9cf6752068e776d7,2020-11-19_05h15.33.032,Colour_Similarity_Experiment,2020.1.2,Win32,60,5fb5945709dec70f2d595766,,,,,,,,,,,,,,,,,,,,FF,,,,,,,,6,1.1,,,,,,,,,,,,,,,,,,,,,,,,,,,,9,85,24,1,0,0,response1disk,4,17,-17,1,0,0,rectangle,17,-17,1,0,0,4,5,"[194,66,46,191,122,18,180,70,148,30,165,120,117,196,248,111,12,28,121,190]",17,-17,1,0,0,0,37,36,36,60,1,,,,,,,,,,,,,,,,,,,,,
,,,,,,,,,,,,,,,,,,,,,,,,,,,,,,,,,,,,,,,,,,,5db43b6a2f45e7000bb7ab5c,5fb5f14e9cf6752068e776d7,2020-11-19_05h15.33.032,Colour_Similarity_Experiment,2020.1.2,Win32,60,5fb5945709dec70f2d595766,,,,,,,,,,,,,,,,,,,,PF,,,,,,,,6,1.116,,,,,,,,,,,,,,,,,,,,,,,,,,,,2,108,42,1,0,0,response1disk,8,7,-15,1,0,0,rectangle,7,-15,1,0,0,4,6,"[194,66,46,191,122,18,180,70,148,30,165,120,117,196,248,111,12,28,121,190]",7,-15,1,0,0,0,38,37,37,52,1,,,,,,,,,,,,,,,,,,,,,
,,,,,,,,,,,,,,,,,,,,,,,,,,,,,,,,,,,,,,,,,,,5db43b6a2f45e7000bb7ab5c,5fb5f14e9cf6752068e776d7,2020-11-19_05h15.33.032,Colour_Similarity_Experiment,2020.1.2,Win32,60,5fb5945709dec70f2d595766,,,,,,,,,,,,,,,,,,,,PF,,,,,,,,2,1.799,,,,,,,,,,,,,,,,,,,,,,,,,,,,9,-74,-54,1,0,0,response5disk,1,-3,-5,1,0,0,rectangle,-3,-5,1,0,0,4,2,"[194,66,46,191,122,18,180,70,148,30,165,120,117,196,248,111,12,28,121,190]",-3,-5,1,0,0,0,39,38,38,74,1,,,,,,,,,,,,,,,,,,,,,
,,,,,,,,,,,,,,,,,,,,,,,,,,,,,,,,,,,,,,,,,,,5db43b6a2f45e7000bb7ab5c,5fb5f14e9cf6752068e776d7,2020-11-19_05h15.33.032,Colour_Similarity_Experiment,2020.1.2,Win32,60,5fb5945709dec70f2d595766,,,,,,,,,,,,,,,,,,,,PF,,,,,,,,6,1.177,,,,,,,,,,,,,,,,,,,,,,,,,,,,4,95,33,1,0,0,response1disk,9,29,-4,1,0,0,rectangle,29,-4,1,0,0,4,5,"[194,66,46,191,122,18,180,70,148,30,165,120,117,196,248,111,12,28,121,190]",29,-4,1,0,0,0,40,39,39,75,1,,,,,,,,,,,,,,,,,,,,,
,,,,,,,,,,,,,,,,,,,,,,,,,,,,,,,,,,,,,,,,,,,5db43b6a2f45e7000bb7ab5c,5fb5f14e9cf6752068e776d7,2020-11-19_05h15.33.032,Colour_Similarity_Experiment,2020.1.2,Win32,60,5fb5945709dec70f2d595766,,,,,,,,,,,,,,,,,,,,PF,,,,,,,,2,1.467,,,,,,,,,,,,,,,,,,,,,,,,,,,,3,-63,-39,1,0,0,response5disk,8,20,-17,1,0,0,rectangle,20,-17,1,0,0,4,5,"[194,66,46,191,122,18,180,70,148,30,165,120,117,196,248,111,12,28,121,190]",20,-17,1,0,0,0,41,40,40,3,1,,,,,,,,,,,,,,,,,,,,,
,,,,,,,,,,,,,,,,,,,,,,,,,,,,,,,,,,,,,,,,,,,5db43b6a2f45e7000bb7ab5c,5fb5f14e9cf6752068e776d7,2020-11-19_05h15.33.032,Colour_Similarity_Experiment,2020.1.2,Win32,60,5fb5945709dec70f2d595766,,,,,,,,,,,,,,,,,,,,PF,,,,,,,,5,1.25,,,,,,,,,,,,,,,,,,,,,,,,,,,,6,95,-42,1,0,0,response3disk,2,9,-3,1,0,0,rectangle,9,-3,1,0,0,4,4,"[194,66,46,191,122,18,180,70,148,30,165,120,117,196,248,111,12,28,121,190]",9,-3,1,0,0,0,42,41,41,130,1,,,,,,,,,,,,,,,,,,,,,
,,,,,,,,,,,,,,,,,,,,,,,,,,,,,,,,,,,,,,,,,,,5db43b6a2f45e7000bb7ab5c,5fb5f14e9cf6752068e776d7,2020-11-19_05h15.33.032,Colour_Similarity_Experiment,2020.1.2,Win32,60,5fb5945709dec70f2d595766,,,,,,,,,,,,,,,,,,,,PF,,,,,,,,2,1.366,,,,,,,,,,,,,,,,,,,,,,,,,,,,5,-72,-47,1,0,0,response5disk,3,8,-9,1,0,0,rectangle,8,-9,1,0,0,4,3,"[194,66,46,191,122,18,180,70,148,30,165,120,117,196,248,111,12,28,121,190]",8,-9,1,0,0,0,43,42,42,109,1,,,,,,,,,,,,,,,,,,,,,
,,,,,,,,,,,,,,,,,,,,,,,,,,,,,,,,,,,,,,,,,,,5db43b6a2f45e7000bb7ab5c,5fb5f14e9cf6752068e776d7,2020-11-19_05h15.33.032,Colour_Similarity_Experiment,2020.1.2,Win32,60,5fb5945709dec70f2d595766,,,,,,,,,,,,,,,,,,,,PF,,,,,,,,5,1.7,,,,,,,,,,,,,,,,,,,,,,,,,,,,9,76,-48,1,0,0,response3disk,2,21,-8,1,0,0,rectangle,21,-8,1,0,0,4,7,"[194,66,46,191,122,18,180,70,148,30,165,120,117,196,248,111,12,28,121,190]",21,-8,1,0,0,0,44,43,43,157,1,,,,,,,,,,,,,,,,,,,,,
,,,,,,,,,,,,,,,,,,,,,,,,,,,,,,,,,,,,,,,,,,,5db43b6a2f45e7000bb7ab5c,5fb5f14e9cf6752068e776d7,2020-11-19_05h15.33.032,Colour_Similarity_Experiment,2020.1.2,Win32,60,5fb5945709dec70f2d595766,,,,,,,,,,,,,,,,,,,,FF,,,,,,,,1,1.317,,,,,,,,,,,,,,,,,,,,,,,,,,,,5,-92,43,1,0,0,response7disk,5,-2,-3,1,0,0,rectangle,-2,-3,1,0,0,4,6,"[194,66,46,191,122,18,180,70,148,30,165,120,117,196,248,111,12,28,121,190]",-2,-3,1,0,0,0,45,44,44,19,1,,,,,,,,,,,,,,,,,,,,,
,,,,,,,,,,,,,,,,,,,,,,,,,,,,,,,,,,,,,,,,,,,5db43b6a2f45e7000bb7ab5c,5fb5f14e9cf6752068e776d7,2020-11-19_05h15.33.032,Colour_Similarity_Experiment,2020.1.2,Win32,60,5fb5945709dec70f2d595766,,,,,,,,,,,,,,,,,,,,PF,,,,,,,,6,1.417,,,,,,,,,,,,,,,,,,,,,,,,,,,,2,104,33,1,0,0,response1disk,6,21,-6,1,0,0,rectangle,94,30,1,0,0,6,6,"[194,66,46,191,122,18,180,70,148,30,165,120,117,196,248,111,12,28,121,190]",20,-12,1,0,0,0,46,45,45,113,1,response1disk_3,rectangle,,,,,,,,,,,,,,,,,,,
,,,,,,,,,,,,,,,,,,,,,,,,,,,,,,,,,,,,,,,,,,,5db43b6a2f45e7000bb7ab5c,5fb5f14e9cf6752068e776d7,2020-11-19_05h15.33.032,Colour_Similarity_Experiment,2020.1.2,Win32,60,5fb5945709dec70f2d595766,,,,,,,,,,,,,,,,,,,,FF,,,,,,,,3,2.733,,,,,,,,,,,,,,,,,,,,,,,,,,,,4,-73,-96,1,0,0,response5disk,6,5,-9,1,0,0,rectangle,5,-9,1,0,0,6,2,"[194,66,46,191,122,18,180,70,148,30,165,120,117,196,248,111,12,28,121,190]",5,-9,1,0,0,0,47,46,46,122,1,,,,,,,,,,,,,,,,,,,,,
,,,,,,,,,,,,,,,,,,,,,,,,,,,,,,,,,,,,,,,,,,,5db43b6a2f45e7000bb7ab5c,5fb5f14e9cf6752068e776d7,2020-11-19_05h15.33.032,Colour_Similarity_Experiment,2020.1.2,Win32,60,5fb5945709dec70f2d595766,,,,,,,,,,,,,,,,,,,,FF,,,,,,,,1,1.35,,,,,,,,,,,,,,,,,,,,,,,,,,,,9,-107,37,1,0,0,response7disk,1,-14,0,1,0,0,rectangle,-14,0,1,0,0,6,2,"[194,66,46,191,122,18,180,70,148,30,165,120,117,196,248,111,12,28,121,190]",-14,0,1,0,0,0,48,47,47,111,1,,,,,,,,,,,,,,,,,,,,,
,,,,,,,,,,,,,,,,,,,,,,,,,,,,,,,,,,,,,,,,,,,5db43b6a2f45e7000bb7ab5c,5fb5f14e9cf6752068e776d7,2020-11-19_05h15.33.032,Colour_Similarity_Experiment,2020.1.2,Win32,60,5fb5945709dec70f2d595766,,,,,,,,,,,,,,,,,,,,FF,,,,,,,,4,1.45,,,,,,,,,,,,,,,,,,,,,,,,,,,,1,33,-77,1,0,0,response3disk,2,-13,-11,1,0,0,rectangle,-13,-11,1,0,0,6,6,"[194,66,46,191,122,18,180,70,148,30,165,120,117,196,248,111,12,28,121,190]",-13,-11,1,0,0,0,49,48,48,2,1,,,,,,,,,,,,,,,,,,,,,
,,,,,,,,,,,,,,,,,,,,,,,,,,,,,,,,,,,,,,,,,,,5db43b6a2f45e7000bb7ab5c,5fb5f14e9cf6752068e776d7,2020-11-19_05h15.33.032,Colour_Similarity_Experiment,2020.1.2,Win32,60,5fb5945709dec70f2d595766,,,,,,,,,,,,,,,,,,,,FF,,,,,,,,3,1.234,,,,,,,,,,,,,,,,,,,,,,,,,,,,7,-50,-93,1,0,0,response5disk,9,-12,-3,1,0,0,rectangle,-12,-3,1,0,0,6,2,"[194,66,46,191,122,18,180,70,148,30,165,120,117,196,248,111,12,28,121,190]",-12,-3,1,0,0,0,50,49,49,155,1,,,,,,,,,,,,,,,,,,,,,
,,,,,,,,,,,,,,,,,,,,,,,,,,,,,,,,,,,,,,,,,,,5db43b6a2f45e7000bb7ab5c,5fb5f14e9cf6752068e776d7,2020-11-19_05h15.33.032,Colour_Similarity_Experiment,2020.1.2,Win32,60,5fb5945709dec70f2d595766,,,,,,,,,,,,,,,,,,,,PF,,,,,,,,1,0.975,,,,,,,,,,,,,,,,,,,,,,,,,,,,8,-84,60,1,0,0,response7disk,8,-3,0,1,0,0,rectangle,-3,0,1,0,0,6,1,"[194,66,46,191,122,18,180,70,148,30,165,120,117,196,248,111,12,28,121,190]",-3,0,1,0,0,0,51,50,50,153,1,,,,,,,,,,,,,,,,,,,,,
,,,,,,,,,,,,,,,,,,,,,,,,,,,,,,,,,,,,,,,,,,,5db43b6a2f45e7000bb7ab5c,5fb5f14e9cf6752068e776d7,2020-11-19_05h15.33.032,Colour_Similarity_Experiment,2020.1.2,Win32,60,5fb5945709dec70f2d595766,,,,,,,,,,,,,,,,,,,,PF,,,,,,,,1,1.017,,,,,,,,,,,,,,,,,,,,,,,,,,,,1,-85,45,1,0,0,response7disk,8,-8,-8,1,0,0,rectangle,-8,-8,1,0,0,6,6,"[194,66,46,191,122,18,180,70,148,30,165,120,117,196,248,111,12,28,121,190]",-8,-8,1,0,0,0,52,51,51,65,1,,,,,,,,,,,,,,,,,,,,,
,,,,,,,,,,,,,,,,,,,,,,,,,,,,,,,,,,,,,,,,,,,5db43b6a2f45e7000bb7ab5c,5fb5f14e9cf6752068e776d7,2020-11-19_05h15.33.032,Colour_Similarity_Experiment,2020.1.2,Win32,60,5fb5945709dec70f2d595766,,,,,,,,,,,,,,,,,,,,FF,,,,,,,,4,18.467,,,,,,,,,,,,,,,,,,,,,,,,,,,,7,30,-104,1,0,0,response3disk,4,23,2,1,0,0,rectangle,23,2,1,0,0,6,3,"[194,66,46,191,122,18,180,70,148,30,165,120,117,196,248,111,12,28,121,190]",23,2,1,0,0,0,53,52,52,158,1,,,,,,,,,,,,,,,,,,,,,
,,,,,,,,,,,,,,,,,,,,,,,,,,,,,,,,,,,,,,,,,,,5db43b6a2f45e7000bb7ab5c,5fb5f14e9cf6752068e776d7,2020-11-19_05h15.33.032,Colour_Similarity_Experiment,2020.1.2,Win32,60,5fb5945709dec70f2d595766,,,,,,,,,,,,,,,,,,,,PF,,,,,,,,4,1.461,,,,,,,,,,,,,,,,,,,,,,,,,,,,4,50,-105,1,0,0,response3disk,7,0,4,1,0,0,rectangle,0,4,1,0,0,6,1,"[194,66,46,191,122,18,180,70,148,30,165,120,117,196,248,111,12,28,121,190]",0,4,1,0,0,0,54,53,53,38,1,,,,,,,,,,,,,,,,,,,,,
,,,,,,,,,,,,,,,,,,,,,,,,,,,,,,,,,,,,,,,,,,,5db43b6a2f45e7000bb7ab5c,5fb5f14e9cf6752068e776d7,2020-11-19_05h15.33.032,Colour_Similarity_Experiment,2020.1.2,Win32,60,5fb5945709dec70f2d595766,,,,,,,,,,,,,,,,,,,,FF,,,,,,,,5,1.916,,,,,,,,,,,,,,,,,,,,,,,,,,,,1,91,-75,1,0,0,response3disk,6,15,-6,1,0,0,rectangle,15,-6,1,0,0,6,4,"[194,66,46,191,122,18,180,70,148,30,165,120,117,196,248,111,12,28,121,190]",15,-6,1,0,0,0,55,54,54,58,1,,,,,,,,,,,,,,,,,,,,,
,,,,,,,,,,,,,,,,,,,,,,,,,,,,,,,,,,,,,,,,,,,5db43b6a2f45e7000bb7ab5c,5fb5f14e9cf6752068e776d7,2020-11-19_05h15.33.032,Colour_Similarity_Experiment,2020.1.2,Win32,60,5fb5945709dec70f2d595766,,,,,,,,,,,,,,,,,,,,PF,,,,,,,,0,0.874,,,,,,,,,,,,,,,,,,,,,,,,,,,,2,-78,135,1,0,0,response7disk,2,-19,-8,1,0,0,rectangle,-19,-8,1,0,0,6,4,"[194,66,46,191,122,18,180,70,148,30,165,120,117,196,248,111,12,28,121,190]",-19,-8,1,0,0,0,56,55,55,14,1,,,,,,,,,,,,,,,,,,,,,
,,,,,,,,,,,,,,,,,,,,,,,,,,,,,,,,,,,,,,,,,,,5db43b6a2f45e7000bb7ab5c,5fb5f14e9cf6752068e776d7,2020-11-19_05h15.33.032,Colour_Similarity_Experiment,2020.1.2,Win32,60,5fb5945709dec70f2d595766,,,,,,,,,,,,,,,,,,,,PF,,,,,,,,3,1.4,,,,,,,,,,,,,,,,,,,,,,,,,,,,8,-61,-90,1,0,0,response5disk,3,-11,1,1,0,0,rectangle,-11,1,1,0,0,6,7,"[194,66,46,191,122,18,180,70,148,30,165,120,117,196,248,111,12,28,121,190]",-11,1,1,0,0,0,57,56,56,71,1,,,,,,,,,,,,,,,,,,,,,
,,,,,,,,,,,,,,,,,,,,,,,,,,,,,,,,,,,,,,,,,,,5db43b6a2f45e7000bb7ab5c,5fb5f14e9cf6752068e776d7,2020-11-19_05h15.33.032,Colour_Similarity_Experiment,2020.1.2,Win32,60,5fb5945709dec70f2d595766,,,,,,,,,,,,,,,,,,,,FF,,,,,,,,1,0.945,,,,,,,,,,,,,,,,,,,,,,,,,,,,4,-96,54,1,0,0,response7disk,3,-3,-11,1,0,0,rectangle,-3,-11,1,0,0,6,4,"[194,66,46,191,122,18,180,70,148,30,165,120,117,196,248,111,12,28,121,190]",-3,-11,1,0,0,0,58,57,57,77,1,,,,,,,,,,,,,,,,,,,,,
,,,,,,,,,,,,,,,,,,,,,,,,,,,,,,,,,,,,,,,,,,,5db43b6a2f45e7000bb7ab5c,5fb5f14e9cf6752068e776d7,2020-11-19_05h15.33.032,Colour_Similarity_Experiment,2020.1.2,Win32,60,5fb5945709dec70f2d595766,,,,,,,,,,,,,,,,,,,,PF,,,,,,,,1,0.933,,,,,,,,,,,,,,,,,,,,,,,,,,,,6,-108,42,1,0,0,response7disk,5,-3,-5,1,0,0,rectangle,-3,-5,1,0,0,6,0,"[194,66,46,191,122,18,180,70,148,30,165,120,117,196,248,111,12,28,121,190]",-3,-5,1,0,0,0,59,58,58,59,1,,,,,,,,,,,,,,,,,,,,,
,,,,,,,,,,,,,,,,,,,,,,,,,,,,,,,,,,,,,,,,,,,5db43b6a2f45e7000bb7ab5c,5fb5f14e9cf6752068e776d7,2020-11-19_05h15.33.032,Colour_Similarity_Experiment,2020.1.2,Win32,60,5fb5945709dec70f2d595766,,,,,,,,,,,,,,,,,,,,FF,,,,,,,,3,1.366,,,,,,,,,,,,,,,,,,,,,,,,,,,,2,-39,-92,1,0,0,response5disk,5,5,-6,1,0,0,rectangle,5,-6,1,0,0,6,0,"[194,66,46,191,122,18,180,70,148,30,165,120,117,196,248,111,12,28,121,190]",5,-6,1,0,0,0,60,59,59,80,1,,,,,,,,,,,,,,,,,,,,,
,,,,,,,,,,,,,,,,,,,,,,,,,,,,,,,,,,,,,,,,,,,5db43b6a2f45e7000bb7ab5c,5fb5f14e9cf6752068e776d7,2020-11-19_05h15.33.032,Colour_Similarity_Experiment,2020.1.2,Win32,60,5fb5945709dec70f2d595766,,,,,,,,,,,,,,,,,,,,PF,,,,,,,,6,1.067,,,,,,,,,,,,,,,,,,,,,,,,,,,,1,69,46,1,0,0,response1disk,7,-10,-10,1,0,0,rectangle,-10,-10,1,0,0,6,0,"[194,66,46,191,122,18,180,70,148,30,165,120,117,196,248,111,12,28,121,190]",-10,-10,1,0,0,0,61,60,60,150,1,,,,,,,,,,,,,,,,,,,,,
,,,,,,,,,,,,,,,,,,,,,,,,,,,,,,,,,,,,,,,,,,,5db43b6a2f45e7000bb7ab5c,5fb5f14e9cf6752068e776d7,2020-11-19_05h15.33.032,Colour_Similarity_Experiment,2020.1.2,Win32,60,5fb5945709dec70f2d595766,,,,,,,,,,,,,,,,,,,,PF,,,,,,,,6,1.166,,,,,,,,,,,,,,,,,,,,,,,,,,,,9,105,44,1,0,0,response1disk,4,19,-4,1,0,0,rectangle,19,-4,1,0,0,6,7,"[194,66,46,191,122,18,180,70,148,30,165,120,117,196,248,111,12,28,121,190]",19,-4,1,0,0,0,62,61,61,114,1,,,,,,,,,,,,,,,,,,,,,
,,,,,,,,,,,,,,,,,,,,,,,,,,,,,,,,,,,,,,,,,,,5db43b6a2f45e7000bb7ab5c,5fb5f14e9cf6752068e776d7,2020-11-19_05h15.33.032,Colour_Similarity_Experiment,2020.1.2,Win32,60,5fb5945709dec70f2d595766,,,,,,,,,,,,,,,,,,,,PF,,,,,,,,5,1.067,,,,,,,,,,,,,,,,,,,,,,,,,,,,3,61,-48,1,0,0,response3disk,2,-12,-7,1,0,0,rectangle,-12,-7,1,0,0,6,5,"[194,66,46,191,122,18,180,70,148,30,165,120,117,196,248,111,12,28,121,190]",-12,-7,1,0,0,0,63,62,62,36,1,,,,,,,,,,,,,,,,,,,,,
,,,,,,,,,,,,,,,,,,,,,,,,,,,,,,,,,,,,,,,,,,,5db43b6a2f45e7000bb7ab5c,5fb5f14e9cf6752068e776d7,2020-11-19_05h15.33.032,Colour_Similarity_Experiment,2020.1.2,Win32,60,5fb5945709dec70f2d595766,,,,,,,,,,,,,,,,,,,,PF,,,,,,,,6,1.435,,,,,,,,,,,,,,,,,,,,,,,,,,,,1,120,41,1,0,0,response1disk,4,-20,-2,1,0,0,rectangle,-20,-2,1,0,0,6,2,"[194,66,46,191,122,18,180,70,148,30,165,120,117,196,248,111,12,28,121,190]",-20,-2,1,0,0,0,64,63,63,139,1,,,,,,,,,,,,,,,,,,,,,
,,,,,,,,,,,,,,,,,,,,,,,,,,,,,,,,,,,,,,,,,,,5db43b6a2f45e7000bb7ab5c,5fb5f14e9cf6752068e776d7,2020-11-19_05h15.33.032,Colour_Similarity_Experiment,2020.1.2,Win32,60,5fb5945709dec70f2d595766,,,,,,,,,,,,,,,,,,,,PF,,,,,,,,2,1.484,,,,,,,,,,,,,,,,,,,,,,,,,,,,5,-89,-31,1,0,0,response5disk,7,19,-6,1,0,0,rectangle,19,-6,1,0,0,6,4,"[194,66,46,191,122,18,180,70,148,30,165,120,117,196,248,111,12,28,121,190]",19,-6,1,0,0,0,65,64,64,146,1,,,,,,,,,,,,,,,,,,,,,
,,,,,,,,,,,,,,,,,,,,,,,,,,,,,,,,,,,,,,,,,,,5db43b6a2f45e7000bb7ab5c,5fb5f14e9cf6752068e776d7,2020-11-19_05h15.33.032,Colour_Similarity_Experiment,2020.1.2,Win32,60,5fb5945709dec70f2d595766,,,,,,,,,,,,,,,,,,,,FF,,,,,,,,2,1.201,,,,,,,,,,,,,,,,,,,,,,,,,,,,8,-113,-49,1,0,0,response5disk,1,-20,2,1,0,0,rectangle,64,122,1,0,0,7,7,"[194,66,46,191,122,18,180,70,148,30,165,120,117,196,248,111,12,28,121,190]",-14,-7,1,0,0,0,66,65,65,20,1,response1disk_3,rectangle,,,,,,,,,,,,,,,,,,,
,,,,,,,,,,,,,,,,,,,,,,,,,,,,,,,,,,,,,,,,,,,5db43b6a2f45e7000bb7ab5c,5fb5f14e9cf6752068e776d7,2020-11-19_05h15.33.032,Colour_Similarity_Experiment,2020.1.2,Win32,60,5fb5945709dec70f2d595766,,,,,,,,,,,,,,,,,,,,PF,,,,,,,,3,1.749,,,,,,,,,,,,,,,,,,,,,,,,,,,,9,-61,-103,1,0,0,response5disk,7,10,-4,1,0,0,rectangle,10,-4,1,0,0,7,0,"[194,66,46,191,122,18,180,70,148,30,165,120,117,196,248,111,12,28,121,190]",10,-4,1,0,0,0,67,66,66,121,1,,,,,,,,,,,,,,,,,,,,,
,,,,,,,,,,,,,,,,,,,,,,,,,,,,,,,,,,,,,,,,,,,5db43b6a2f45e7000bb7ab5c,5fb5f14e9cf6752068e776d7,2020-11-19_05h15.33.032,Colour_Similarity_Experiment,2020.1.2,Win32,60,5fb5945709dec70f2d595766,,,,,,,,,,,,,,,,,,,,PF,,,,,,,,4,4.833,,,,,,,,,,,,,,,,,,,,,,,,,,,,4,36,-82,1,0,0,response3disk,2,-15,-6,1,0,0,rectangle,-15,-6,1,0,0,7,1,"[194,66,46,191,122,18,180,70,148,30,165,120,117,196,248,111,12,28,121,190]",-15,-6,1,0,0,0,68,67,67,108,1,,,,,,,,,,,,,,,,,,,,,
,,,,,,,,,,,,,,,,,,,,,,,,,,,,,,,,,,,,,,,,,,,5db43b6a2f45e7000bb7ab5c,5fb5f14e9cf6752068e776d7,2020-11-19_05h15.33.032,Colour_Similarity_Experiment,2020.1.2,Win32,60,5fb5945709dec70f2d595766,,,,,,,,,,,,,,,,,,,,FF,,,,,,,,4,1.351,,,,,,,,,,,,,,,,,,,,,,,,,,,,9,51,-71,1,0,0,response3disk,2,-4,2,1,0,0,rectangle,-4,2,1,0,0,7,7,"[194,66,46,191,122,18,180,70,148,30,165,120,117,196,248,111,12,28,121,190]",-4,2,1,0,0,0,69,68,68,11,1,,,,,,,,,,,,,,,,,,,,,
,,,,,,,,,,,,,,,,,,,,,,,,,,,,,,,,,,,,,,,,,,,5db43b6a2f45e7000bb7ab5c,5fb5f14e9cf6752068e776d7,2020-11-19_05h15.33.032,Colour_Similarity_Experiment,2020.1.2,Win32,60,5fb5945709dec70f2d595766,,,,,,,,,,,,,,,,,,,,FF,,,,,,,,3,1.349,,,,,,,,,,,,,,,,,,,,,,,,,,,,4,-38,-93,1,0,0,response5disk,5,17,-19,1,0,0,rectangle,90,-44,1,0,0,5,5,"[194,66,46,191,122,18,180,70,148,30,165,120,117,196,248,111,12,28,121,190]",4,-2,1,0,0,0,70,69,69,116,1,response3disk_3,rectangle,,,,,,,,,,,,,,,,,,,
,,,,,,,,,,,,,,,,,,,,,,,,,,,,,,,,,,,,,,,,,,,5db43b6a2f45e7000bb7ab5c,5fb5f14e9cf6752068e776d7,2020-11-19_05h15.33.032,Colour_Similarity_Experiment,2020.1.2,Win32,60,5fb5945709dec70f2d595766,,,,,,,,,,,,,,,,,,,,PF,,,,,,,,6,1.592,,,,,,,,,,,,,,,,,,,,,,,,,,,,1,104,39,1,0,0,response1disk,5,37,-9,1,0,0,rectangle,37,-9,1,0,0,5,5,"[194,66,46,191,122,18,180,70,148,30,165,120,117,196,248,111,12,28,121,190]",37,-9,1,0,0,0,71,70,70,28,1,,,,,,,,,,,,,,,,,,,,,
,,,,,,,,,,,,,,,,,,,,,,,,,,,,,,,,,,,,,,,,,,,5db43b6a2f45e7000bb7ab5c,5fb5f14e9cf6752068e776d7,2020-11-19_05h15.33.032,Colour_Similarity_Experiment,2020.1.2,Win32,60,5fb5945709dec70f2d595766,,,,,,,,,,,,,,,,,,,,PF,,,,,,,,6,0.9,,,,,,,,,,,,,,,,,,,,,,,,,,,,4,97,58,1,0,0,response1disk,1,6,9,1,0,0,rectangle,6,9,1,0,0,5,3,"[194,66,46,191,122,18,180,70,148,30,165,120,117,196,248,111,12,28,121,190]",6,9,1,0,0,0,72,71,71,115,1,,,,,,,,,,,,,,,,,,,,,
,,,,,,,,,,,,,,,,,,,,,,,,,,,,,,,,,,,,,,,,,,,5db43b6a2f45e7000bb7ab5c,5fb5f14e9cf6752068e776d7,2020-11-19_05h15.33.032,Colour_Similarity_Experiment,2020.1.2,Win32,60,5fb5945709dec70f2d595766,,,,,,,,,,,,,,,,,,,,FF,,,,,,,,5,1.749,,,,,,,,,,,,,,,,,,,,,,,,,,,,8,105,-27,1,0,0,response3disk,2,11,8,1,0,0,rectangle,11,8,1,0,0,5,5,"[194,66,46,191,122,18,180,70,148,30,165,120,117,196,248,111,12,28,121,190]",11,8,1,0,0,0,73,72,72,22,1,,,,,,,,,,,,,,,,,,,,,
,,,,,,,,,,,,,,,,,,,,,,,,,,,,,,,,,,,,,,,,,,,5db43b6a2f45e7000bb7ab5c,5fb5f14e9cf6752068e776d7,2020-11-19_05h15.33.032,Colour_Similarity_Experiment,2020.1.2,Win32,60,5fb5945709dec70f2d595766,,,,,,,,,,,,,,,,,,,,FF,,,,,,,,6,1.366,,,,,,,,,,,,,,,,,,,,,,,,,,,,3,74,43,1,0,0,response1disk,9,16,1,1,0,0,rectangle,16,1,1,0,0,5,7,"[194,66,46,191,122,18,180,70,148,30,165,120,117,196,248,111,12,28,121,190]",16,1,1,0,0,0,74,73,73,143,1,,,,,,,,,,,,,,,,,,,,,
,,,,,,,,,,,,,,,,,,,,,,,,,,,,,,,,,,,,,,,,,,,5db43b6a2f45e7000bb7ab5c,5fb5f14e9cf6752068e776d7,2020-11-19_05h15.33.032,Colour_Similarity_Experiment,2020.1.2,Win32,60,5fb5945709dec70f2d595766,,,,,,,,,,,,,,,,,,,,FF,,,,,,,,6,1.033,,,,,,,,,,,,,,,,,,,,,,,,,,,,2,110,51,1,0,0,response1disk,8,15,3,1,0,0,rectangle,15,3,1,0,0,5,4,"[194,66,46,191,122,18,180,70,148,30,165,120,117,196,248,111,12,28,121,190]",15,3,1,0,0,0,75,74,74,62,1,,,,,,,,,,,,,,,,,,,,,
,,,,,,,,,,,,,,,,,,,,,,,,,,,,,,,,,,,,,,,,,,,5db43b6a2f45e7000bb7ab5c,5fb5f14e9cf6752068e776d7,2020-11-19_05h15.33.032,Colour_Similarity_Experiment,2020.1.2,Win32,60,5fb5945709dec70f2d595766,,,,,,,,,,,,,,,,,,,,PF,,,,,,,,3,1.5,,,,,,,,,,,,,,,,,,,,,,,,,,,,8,-74,-96,1,0,0,response5disk,1,-37,4,1,0,0,rectangle,-37,4,1,0,0,5,5,"[194,66,46,191,122,18,180,70,148,30,165,120,117,196,248,111,12,28,121,190]",-37,4,1,0,0,0,76,75,75,57,1,,,,,,,,,,,,,,,,,,,,,
,,,,,,,,,,,,,,,,,,,,,,,,,,,,,,,,,,,,,,,,,,,5db43b6a2f45e7000bb7ab5c,5fb5f14e9cf6752068e776d7,2020-11-19_05h15.33.032,Colour_Similarity_Experiment,2020.1.2,Win32,60,5fb5945709dec70f2d595766,,,,,,,,,,,,,,,,,,,,FF,,,,,,,,6,1.816,,,,,,,,,,,,,,,,,,,,,,,,,,,,4,89,36,1,0,0,response1disk,7,7,12,1,0,0,rectangle,7,12,1,0,0,5,5,"[194,66,46,191,122,18,180,70,148,30,165,120,117,196,248,111,12,28,121,190]",7,12,1,0,0,0,77,76,76,87,1,,,,,,,,,,,,,,,,,,,,,
,,,,,,,,,,,,,,,,,,,,,,,,,,,,,,,,,,,,,,,,,,,5db43b6a2f45e7000bb7ab5c,5fb5f14e9cf6752068e776d7,2020-11-19_05h15.33.032,Colour_Similarity_Experiment,2020.1.2,Win32,60,5fb5945709dec70f2d595766,,,,,,,,,,,,,,,,,,,,PF,,,,,,,,5,1.333,,,,,,,,,,,,,,,,,,,,,,,,,,,,8,86,-57,1,0,0,response3disk,6,-25,5,1,0,0,rectangle,-25,5,1,0,0,5,4,"[194,66,46,191,122,18,180,70,148,30,165,120,117,196,248,111,12,28,121,190]",-25,5,1,0,0,0,78,77,77,161,1,,,,,,,,,,,,,,,,,,,,,
,,,,,,,,,,,,,,,,,,,,,,,,,,,,,,,,,,,,,,,,,,,5db43b6a2f45e7000bb7ab5c,5fb5f14e9cf6752068e776d7,2020-11-19_05h15.33.032,Colour_Similarity_Experiment,2020.1.2,Win32,60,5fb5945709dec70f2d595766,,,,,,,,,,,,,,,,,,,,PF,,,,,,,,0,0.999,,,,,,,,,,,,,,,,,,,,,,,,,,,,6,-90,120,1,0,0,response7disk,6,9,-6,1,0,0,rectangle,9,-6,1,0,0,5,2,"[194,66,46,191,122,18,180,70,148,30,165,120,117,196,248,111,12,28,121,190]",9,-6,1,0,0,0,79,78,78,0,1,,,,,,,,,,,,,,,,,,,,,
,,,,,,,,,,,,,,,,,,,,,,,,,,,,,,,,,,,,,,,,,,,5db43b6a2f45e7000bb7ab5c,5fb5f14e9cf6752068e776d7,2020-11-19_05h15.33.032,Colour_Similarity_Experiment,2020.1.2,Win32,60,5fb5945709dec70f2d595766,,,,,,,,,,,,,,,,,,,,PF,,,,,,,,4,2.55,,,,,,,,,,,,,,,,,,,,,,,,,,,,5,52,-68,1,0,0,response3disk,9,-8,9,1,0,0,rectangle,-8,9,1,0,0,5,4,"[194,66,46,191,122,18,180,70,148,30,165,120,117,196,248,111,12,28,121,190]",-8,9,1,0,0,0,80,79,79,136,1,,,,,,,,,,,,,,,,,,,,,
,,,,,,,,,,,,,,,,,,,,,,,,,,,,,,,,,,,,,,,,,,,5db43b6a2f45e7000bb7ab5c,5fb5f14e9cf6752068e776d7,2020-11-19_05h15.33.032,Colour_Similarity_Experiment,2020.1.2,Win32,60,5fb5945709dec70f2d595766,,,,,,,,,,,,,,,,,,,,PF,,,,,,,,0,1.233,,,,,,,,,,,,,,,,,,,,,,,,,,,,5,-37,91,1,0,0,response7disk,5,10,6,1,0,0,rectangle,10,6,1,0,0,5,4,"[194,66,46,191,122,18,180,70,148,30,165,120,117,196,248,111,12,28,121,190]",10,6,1,0,0,0,81,80,80,94,1,,,,,,,,,,,,,,,,,,,,,
,,,,,,,,,,,,,,,,,,,,,,,,,,,,,,,,,,,,,,,,,,,5db43b6a2f45e7000bb7ab5c,5fb5f14e9cf6752068e776d7,2020-11-19_05h15.33.032,Colour_Similarity_Experiment,2020.1.2,Win32,60,5fb5945709dec70f2d595766,,,,,,,,,,,,,,,,,,,,FF,,,,,,,,6,6.741,,,,,,,,,,,,,,,,,,,,,,,,,,,,4,106,47,1,0,0,response1disk,9,7,2,1,0,0,rectangle,7,2,1,0,0,5,2,"[194,66,46,191,122,18,180,70,148,30,165,120,117,196,248,111,12,28,121,190]",7,2,1,0,0,0,82,81,81,90,1,,,,,,,,,,,,,,,,,,,,,
,,,,,,,,,,,,,,,,,,,,,,,,,,,,,,,,,,,,,,,,,,,5db43b6a2f45e7000bb7ab5c,5fb5f14e9cf6752068e776d7,2020-11-19_05h15.33.032,Colour_Similarity_Experiment,2020.1.2,Win32,60,5fb5945709dec70f2d595766,,,,,,,,,,,,,,,,,,,,FF,,,,,,,,6,2.783,,,,,,,,,,,,,,,,,,,,,,,,,,,,2,86,56,1,0,0,response1disk,7,-7,-6,1,0,0,rectangle,-7,-6,1,0,0,5,0,"[194,66,46,191,122,18,180,70,148,30,165,120,117,196,248,111,12,28,121,190]",-7,-6,1,0,0,0,83,82,82,63,1,,,,,,,,,,,,,,,,,,,,,
,,,,,,,,,,,,,,,,,,,,,,,,,,,,,,,,,,,,,,,,,,,5db43b6a2f45e7000bb7ab5c,5fb5f14e9cf6752068e776d7,2020-11-19_05h15.33.032,Colour_Similarity_Experiment,2020.1.2,Win32,60,5fb5945709dec70f2d595766,,,,,,,,,,,,,,,,,,,,PF,,,,,,,,5,2.513,,,,,,,,,,,,,,,,,,,,,,,,,,,,1,86,-32,1,0,0,response3disk,3,17,7,1,0,0,rectangle,17,7,1,0,0,5,0,"[194,66,46,191,122,18,180,70,148,30,165,120,117,196,248,111,12,28,121,190]",17,7,1,0,0,0,84,83,83,1,1,,,,,,,,,,,,,,,,,,,,,
,,,,,,,,,,,,,,,,,,,,,,,,,,,,,,,,,,,,,,,,,,,5db43b6a2f45e7000bb7ab5c,5fb5f14e9cf6752068e776d7,2020-11-19_05h15.33.032,Colour_Similarity_Experiment,2020.1.2,Win32,60,5fb5945709dec70f2d595766,,,,,,,,,,,,,,,,,,,,PF,,,,,,,,6,1.255,,,,,,,,,,,,,,,,,,,,,,,,,,,,6,102,57,1,0,0,response1disk,1,-16,10,1,0,0,rectangle,-16,10,1,0,0,5,3,"[194,66,46,191,122,18,180,70,148,30,165,120,117,196,248,111,12,28,121,190]",-16,10,1,0,0,0,85,84,84,46,1,,,,,,,,,,,,,,,,,,,,,
,,,,,,,,,,,,,,,,,,,,,,,,,,,,,,,,,,,,,,,,,,,5db43b6a2f45e7000bb7ab5c,5fb5f14e9cf6752068e776d7,2020-11-19_05h15.33.032,Colour_Similarity_Experiment,2020.1.2,Win32,60,5fb5945709dec70f2d595766,,,,,,,,,,,,,,,,,,,,FF,,,,,,,,6,2.1,,,,,,,,,,,,,,,,,,,,,,,,,,,,1,101,48,1,0,0,response1disk,3,17,4,1,0,0,rectangle,17,4,1,0,0,5,0,"[194,66,46,191,122,18,180,70,148,30,165,120,117,196,248,111,12,28,121,190]",17,4,1,0,0,0,86,85,85,99,1,,,,,,,,,,,,,,,,,,,,,
,,,,,,,,,,,,,,,,,,,,,,,,,,,,,,,,,,,,,,,,,,,5db43b6a2f45e7000bb7ab5c,5fb5f14e9cf6752068e776d7,2020-11-19_05h15.33.032,Colour_Similarity_Experiment,2020.1.2,Win32,60,5fb5945709dec70f2d595766,,,,,,,,,,,,,,,,,,,,FF,,,,,,,,1,1.556,,,,,,,,,,,,,,,,,,,,,,,,,,,,6,-98,44,1,0,0,response7disk,5,9,-1,1,0,0,rectangle,9,-1,1,0,0,5,7,"[194,66,46,191,122,18,180,70,148,30,165,120,117,196,248,111,12,28,121,190]",9,-1,1,0,0,0,87,86,86,126,1,,,,,,,,,,,,,,,,,,,,,
,,,,,,,,,,,,,,,,,,,,,,,,,,,,,,,,,,,,,,,,,,,5db43b6a2f45e7000bb7ab5c,5fb5f14e9cf6752068e776d7,2020-11-19_05h15.33.032,Colour_Similarity_Experiment,2020.1.2,Win32,60,5fb5945709dec70f2d595766,,,,,,,,,,,,,,,,,,,,FF,,,,,,,,2,1.875,,,,,,,,,,,,,,,,,,,,,,,,,,,,8,-90,-44,1,0,0,response5disk,7,-21,14,1,0,0,rectangle,-21,14,1,0,0,5,1,"[194,66,46,191,122,18,180,70,148,30,165,120,117,196,248,111,12,28,121,190]",-21,14,1,0,0,0,88,87,87,86,1,,,,,,,,,,,,,,,,,,,,,
,,,,,,,,,,,,,,,,,,,,,,,,,,,,,,,,,,,,,,,,,,,5db43b6a2f45e7000bb7ab5c,5fb5f14e9cf6752068e776d7,2020-11-19_05h15.33.032,Colour_Similarity_Experiment,2020.1.2,Win32,60,5fb5945709dec70f2d595766,,,,,,,,,,,,,,,,,,,,FF,,,,,,,,6,1.483,,,,,,,,,,,,,,,,,,,,,,,,,,,,4,107,31,1,0,0,response1disk,8,23,-12,1,0,0,rectangle,23,-12,1,0,0,5,6,"[194,66,46,191,122,18,180,70,148,30,165,120,117,196,248,111,12,28,121,190]",23,-12,1,0,0,0,89,88,88,35,1,,,,,,,,,,,,,,,,,,,,,
,,,,,,,,,,,,,,,,,,,,,,,,,,,,,,,,,,,,,,,,,,,5db43b6a2f45e7000bb7ab5c,5fb5f14e9cf6752068e776d7,2020-11-19_05h15.33.032,Colour_Similarity_Experiment,2020.1.2,Win32,60,5fb5945709dec70f2d595766,,,,,,,,,,,,,,,,,,,,FF,,,,,,,,5,1.151,,,,,,,,,,,,,,,,,,,,,,,,,,,,7,81,-43,1,0,0,response3disk,3,9,-5,1,0,0,rectangle,9,-5,1,0,0,5,2,"[194,66,46,191,122,18,180,70,148,30,165,120,117,196,248,111,12,28,121,190]",9,-5,1,0,0,0,90,89,89,73,1,,,,,,,,,,,,,,,,,,,,,
,,,,,,,,,,,,,,,,,,,,,,,,,,,,,,,,,,,,,,,,,,,5db43b6a2f45e7000bb7ab5c,5fb5f14e9cf6752068e776d7,2020-11-19_05h15.33.032,Colour_Similarity_Experiment,2020.1.2,Win32,60,5fb5945709dec70f2d595766,,,,,,,,,,,,,,,,,,,,PF,,,,,,,,6,1.218,,,,,,,,,,,,,,,,,,,,,,,,,,,,3,105,31,1,0,0,response1disk,9,15,-3,1,0,0,rectangle,15,-3,1,0,0,5,2,"[194,66,46,191,122,18,180,70,148,30,165,120,117,196,248,111,12,28,121,190]",15,-3,1,0,0,0,91,90,90,79,1,,,,,,,,,,,,,,,,,,,,,
,,,,,,,,,,,,,,,,,,,,,,,,,,,,,,,,,,,,,,,,,,,5db43b6a2f45e7000bb7ab5c,5fb5f14e9cf6752068e776d7,2020-11-19_05h15.33.032,Colour_Similarity_Experiment,2020.1.2,Win32,60,5fb5945709dec70f2d595766,,,,,,,,,,,,,,,,,,,,PF,,,,,,,,0,0.884,,,,,,,,,,,,,,,,,,,,,,,,,,,,9,-69,110,1,0,0,response7disk,9,-33,13,1,0,0,rectangle,-33,13,1,0,0,5,5,"[194,66,46,191,122,18,180,70,148,30,165,120,117,196,248,111,12,28,121,190]",-33,13,1,0,0,0,92,91,91,106,1,,,,,,,,,,,,,,,,,,,,,
,,,,,,,,,,,,,,,,,,,,,,,,,,,,,,,,,,,,,,,,,,,5db43b6a2f45e7000bb7ab5c,5fb5f14e9cf6752068e776d7,2020-11-19_05h15.33.032,Colour_Similarity_Experiment,2020.1.2,Win32,60,5fb5945709dec70f2d595766,,,,,,,,,,,,,,,,,,,,FF,,,,,,,,4,2.191,,,,,,,,,,,,,,,,,,,,,,,,,,,,8,61,-87,1,0,0,response3disk,4,-4,-12,1,0,0,rectangle,-4,-12,1,0,0,5,4,"[194,66,46,191,122,18,180,70,148,30,165,120,117,196,248,111,12,28,121,190]",-4,-12,1,0,0,0,93,92,92,88,1,,,,,,,,,,,,,,,,,,,,,
,,,,,,,,,,,,,,,,,,,,,,,,,,,,,,,,,,,,,,,,,,,5db43b6a2f45e7000bb7ab5c,5fb5f14e9cf6752068e776d7,2020-11-19_05h15.33.032,Colour_Similarity_Experiment,2020.1.2,Win32,60,5fb5945709dec70f2d595766,,,,,,,,,,,,,,,,,,,,FF,,,,,,,,6,2.032,,,,,,,,,,,,,,,,,,,,,,,,,,,,7,109,26,1,0,0,response1disk,1,-27,3,1,0,0,rectangle,-27,3,1,0,0,5,1,"[194,66,46,191,122,18,180,70,148,30,165,120,117,196,248,111,12,28,121,190]",-27,3,1,0,0,0,94,93,93,132,1,,,,,,,,,,,,,,,,,,,,,
,,,,,,,,,,,,,,,,,,,,,,,,,,,,,,,,,,,,,,,,,,,5db43b6a2f45e7000bb7ab5c,5fb5f14e9cf6752068e776d7,2020-11-19_05h15.33.032,Colour_Similarity_Experiment,2020.1.2,Win32,60,5fb5945709dec70f2d595766,,,,,,,,,,,,,,,,,,,,PF,,,,,,,,3,1.384,,,,,,,,,,,,,,,,,,,,,,,,,,,,6,-23,-76,1,0,0,response5disk,4,-22,-3,1,0,0,rectangle,-22,-3,1,0,0,5,5,"[194,66,46,191,122,18,180,70,148,30,165,120,117,196,248,111,12,28,121,190]",-22,-3,1,0,0,0,95,94,94,33,1,,,,,,,,,,,,,,,,,,,,,
,,,,,,,,,,,,,,,,,,,,,,,,,,,,,,,,,,,,,,,,,,,5db43b6a2f45e7000bb7ab5c,5fb5f14e9cf6752068e776d7,2020-11-19_05h15.33.032,Colour_Similarity_Experiment,2020.1.2,Win32,60,5fb5945709dec70f2d595766,,,,,,,,,,,,,,,,,,,,PF,,,,,,,,5,6.105,,,,,,,,,,,,,,,,,,,,,,,,,,,,8,89,-42,1,0,0,response3disk,2,-21,-1,1,0,0,rectangle,-21,-1,1,0,0,5,3,"[194,66,46,191,122,18,180,70,148,30,165,120,117,196,248,111,12,28,121,190]",-21,-1,1,0,0,0,96,95,95,83,1,,,,,,,,,,,,,,,,,,,,,
,,,,,,,,,,,,,,,,,,,,,,,,,,,,,,,,,,,,,,,,,,,5db43b6a2f45e7000bb7ab5c,5fb5f14e9cf6752068e776d7,2020-11-19_05h15.33.032,Colour_Similarity_Experiment,2020.1.2,Win32,60,5fb5945709dec70f2d595766,,,,,,,,,,,,,,,,,,,,FF,,,,,,,,6,1.151,,,,,,,,,,,,,,,,,,,,,,,,,,,,5,122,30,1,0,0,response1disk,9,40,-2,1,0,0,rectangle,40,-2,1,0,0,5,7,"[194,66,46,191,122,18,180,70,148,30,165,120,117,196,248,111,12,28,121,190]",40,-2,1,0,0,0,97,96,96,61,1,,,,,,,,,,,,,,,,,,,,,
,,,,,,,,,,,,,,,,,,,,,,,,,,,,,,,,,,,,,,,,,,,5db43b6a2f45e7000bb7ab5c,5fb5f14e9cf6752068e776d7,2020-11-19_05h15.33.032,Colour_Similarity_Experiment,2020.1.2,Win32,60,5fb5945709dec70f2d595766,,,,,,,,,,,,,,,,,,,,PF,,,,,,,,3,1.217,,,,,,,,,,,,,,,,,,,,,,,,,,,,4,-37,-70,1,0,0,response5disk,6,-29,7,1,0,0,rectangle,-29,7,1,0,0,5,1,"[194,66,46,191,122,18,180,70,148,30,165,120,117,196,248,111,12,28,121,190]",-29,7,1,0,0,0,98,97,97,120,1,,,,,,,,,,,,,,,,,,,,,
,,,,,,,,,,,,,,,,,,,,,,,,,,,,,,,,,,,,,,,,,,,5db43b6a2f45e7000bb7ab5c,5fb5f14e9cf6752068e776d7,2020-11-19_05h15.33.032,Colour_Similarity_Experiment,2020.1.2,Win32,60,5fb5945709dec70f2d595766,,,,,,,,,,,,,,,,,,,,PF,,,,,,,,2,1.25,,,,,,,,,,,,,,,,,,,,,,,,,,,,5,-83,-40,1,0,0,response5disk,4,-27,5,1,0,0,rectangle,-27,5,1,0,0,5,1,"[194,66,46,191,122,18,180,70,148,30,165,120,117,196,248,111,12,28,121,190]",-27,5,1,0,0,0,99,98,98,54,1,,,,,,,,,,,,,,,,,,,,,
,,,,,,,,,,,,,,,,,,,,,,,,,,,,,,,,,,,,,,,,,,,5db43b6a2f45e7000bb7ab5c,5fb5f14e9cf6752068e776d7,2020-11-19_05h15.33.032,Colour_Similarity_Experiment,2020.1.2,Win32,60,5fb5945709dec70f2d595766,,,,,,,,,,,,,,,,,,,,FF,,,,,,,,6,1.083,,,,,,,,,,,,,,,,,,,,,,,,,,,,3,120,48,1,0,0,response1disk,1,30,-11,1,0,0,rectangle,30,-11,1,0,0,5,6,"[194,66,46,191,122,18,180,70,148,30,165,120,117,196,248,111,12,28,121,190]",30,-11,1,0,0,0,100,99,99,125,1,,,,,,,,,,,,,,,,,,,,,
,,,,,,,,,,,,,,,,,,,,,,,,,,,,,,,,,,,,,,,,,,,5db43b6a2f45e7000bb7ab5c,5fb5f14e9cf6752068e776d7,2020-11-19_05h15.33.032,Colour_Similarity_Experiment,2020.1.2,Win32,60,5fb5945709dec70f2d595766,,,,,,,,,,,,,,,,,,,,PF,,,,,,,,5,1.091,,,,,,,,,,,,,,,,,,,,,,,,,,,,8,72,-45,1,0,0,response3disk,5,4,-2,1,0,0,rectangle,4,-2,1,0,0,5,2,"[194,66,46,191,122,18,180,70,148,30,165,120,117,196,248,111,12,28,121,190]",4,-2,1,0,0,0,101,100,100,98,1,,,,,,,,,,,,,,,,,,,,,
,,,,,,,,,,,,,,,,,,,,,,,,,,,,,,,,,,,,,,,,,,,5db43b6a2f45e7000bb7ab5c,5fb5f14e9cf6752068e776d7,2020-11-19_05h15.33.032,Colour_Similarity_Experiment,2020.1.2,Win32,60,5fb5945709dec70f2d595766,,,,,,,,,,,,,,,,,,,,PF,,,,,,,,2,1.35,,,,,,,,,,,,,,,,,,,,,,,,,,,,7,-89,-59,1,0,0,response5disk,5,-9,-3,1,0,0,rectangle,-9,-3,1,0,0,5,3,"[194,66,46,191,122,18,180,70,148,30,165,120,117,196,248,111,12,28,121,190]",-9,-3,1,0,0,0,102,101,101,92,1,,,,,,,,,,,,,,,,,,,,,
,,,,,,,,,,,,,,,,,,,,,,,,,,,,,,,,,,,,,,,,,,,5db43b6a2f45e7000bb7ab5c,5fb5f14e9cf6752068e776d7,2020-11-19_05h15.33.032,Colour_Similarity_Experiment,2020.1.2,Win32,60,5fb5945709dec70f2d595766,,,,,,,,,,,,,,,,,,,,PF,,,,,,,,3,1.784,,,,,,,,,,,,,,,,,,,,,,,,,,,,1,-24,-74,1,0,0,response5disk,2,-18,-16,1,0,0,rectangle,-18,-16,1,0,0,5,4,"[194,66,46,191,122,18,180,70,148,30,165,120,117,196,248,111,12,28,121,190]",-18,-16,1,0,0,0,103,102,102,24,1,,,,,,,,,,,,,,,,,,,,,
,,,,,,,,,,,,,,,,,,,,,,,,,,,,,,,,,,,,,,,,,,,5db43b6a2f45e7000bb7ab5c,5fb5f14e9cf6752068e776d7,2020-11-19_05h15.33.032,Colour_Similarity_Experiment,2020.1.2,Win32,60,5fb5945709dec70f2d595766,,,,,,,,,,,,,,,,,,,,PF,,,,,,,,1,0.983,,,,,,,,,,,,,,,,,,,,,,,,,,,,3,-113,68,1,0,0,response7disk,3,-18,11,1,0,0,rectangle,-18,11,1,0,0,5,3,"[194,66,46,191,122,18,180,70,148,30,165,120,117,196,248,111,12,28,121,190]",-18,11,1,0,0,0,104,103,103,4,1,,,,,,,,,,,,,,,,,,,,,
,,,,,,,,,,,,,,,,,,,,,,,,,,,,,,,,,,,,,,,,,,,5db43b6a2f45e7000bb7ab5c,5fb5f14e9cf6752068e776d7,2020-11-19_05h15.33.032,Colour_Similarity_Experiment,2020.1.2,Win32,60,5fb5945709dec70f2d595766,,,,,,,,,,,,,,,,,,,,FF,,,,,,,,4,1.583,,,,,,,,,,,,,,,,,,,,,,,,,,,,2,38,-88,1,0,0,response3disk,1,-14,4,1,0,0,rectangle,-14,4,1,0,0,5,0,"[194,66,46,191,122,18,180,70,148,30,165,120,117,196,248,111,12,28,121,190]",-14,4,1,0,0,0,105,104,104,85,1,,,,,,,,,,,,,,,,,,,,,
,,,,,,,,,,,,,,,,,,,,,,,,,,,,,,,,,,,,,,,,,,,5db43b6a2f45e7000bb7ab5c,5fb5f14e9cf6752068e776d7,2020-11-19_05h15.33.032,Colour_Similarity_Experiment,2020.1.2,Win32,60,5fb5945709dec70f2d595766,,,,,,,,,,,,,,,,,,,,FF,,,,,,,,1,0.916,,,,,,,,,,,,,,,,,,,,,,,,,,,,1,-118,53,1,0,0,response7disk,9,-16,5,1,0,0,rectangle,-16,5,1,0,0,5,6,"[194,66,46,191,122,18,180,70,148,30,165,120,117,196,248,111,12,28,121,190]",-16,5,1,0,0,0,106,105,105,123,1,,,,,,,,,,,,,,,,,,,,,
,,,,,,,,,,,,,,,,,,,,,,,,,,,,,,,,,,,,,,,,,,,5db43b6a2f45e7000bb7ab5c,5fb5f14e9cf6752068e776d7,2020-11-19_05h15.33.032,Colour_Similarity_Experiment,2020.1.2,Win32,60,5fb5945709dec70f2d595766,,,,,,,,,,,,,,,,,,,,FF,,,,,,,,0,0.883,,,,,,,,,,,,,,,,,,,,,,,,,,,,9,-67,103,1,0,0,response7disk,9,-6,-7,1,0,0,rectangle,-6,-7,1,0,0,5,1,"[194,66,46,191,122,18,180,70,148,30,165,120,117,196,248,111,12,28,121,190]",-6,-7,1,0,0,0,107,106,106,17,1,,,,,,,,,,,,,,,,,,,,,
,,,,,,,,,,,,,,,,,,,,,,,,,,,,,,,,,,,,,,,,,,,5db43b6a2f45e7000bb7ab5c,5fb5f14e9cf6752068e776d7,2020-11-19_05h15.33.032,Colour_Similarity_Experiment,2020.1.2,Win32,60,5fb5945709dec70f2d595766,,,,,,,,,,,,,,,,,,,,FF,,,,,,,,3,1.233,,,,,,,,,,,,,,,,,,,,,,,,,,,,5,-61,-110,1,0,0,response5disk,2,-19,-1,1,0,0,rectangle,-19,-1,1,0,0,5,5,"[194,66,46,191,122,18,180,70,148,30,165,120,117,196,248,111,12,28,121,190]",-19,-1,1,0,0,0,108,107,107,55,1,,,,,,,,,,,,,,,,,,,,,
,,,,,,,,,,,,,,,,,,,,,,,,,,,,,,,,,,,,,,,,,,,5db43b6a2f45e7000bb7ab5c,5fb5f14e9cf6752068e776d7,2020-11-19_05h15.33.032,Colour_Similarity_Experiment,2020.1.2,Win32,60,5fb5945709dec70f2d595766,,,,,,,,,,,,,,,,,,,,PF,,,,,,,,1,0.984,,,,,,,,,,,,,,,,,,,,,,,,,,,,4,-124,67,1,0,0,response7disk,4,31,-14,1,0,0,rectangle,31,-14,1,0,0,5,7,"[194,66,46,191,122,18,180,70,148,30,165,120,117,196,248,111,12,28,121,190]",31,-14,1,0,0,0,109,108,108,70,1,,,,,,,,,,,,,,,,,,,,,
,,,,,,,,,,,,,,,,,,,,,,,,,,,,,,,,,,,,,,,,,,,5db43b6a2f45e7000bb7ab5c,5fb5f14e9cf6752068e776d7,2020-11-19_05h15.33.032,Colour_Similarity_Experiment,2020.1.2,Win32,60,5fb5945709dec70f2d595766,,,,,,,,,,,,,,,,,,,,FF,,,,,,,,1,0.85,,,,,,,,,,,,,,,,,,,,,,,,,,,,5,-98,49,1,0,0,response7disk,3,9,0,1,0,0,rectangle,9,0,1,0,0,5,7,"[194,66,46,191,122,18,180,70,148,30,165,120,117,196,248,111,12,28,121,190]",9,0,1,0,0,0,110,109,109,25,1,,,,,,,,,,,,,,,,,,,,,
,,,,,,,,,,,,,,,,,,,,,,,,,,,,,,,,,,,,,,,,,,,5db43b6a2f45e7000bb7ab5c,5fb5f14e9cf6752068e776d7,2020-11-19_05h15.33.032,Colour_Similarity_Experiment,2020.1.2,Win32,60,5fb5945709dec70f2d595766,,,,,,,,,,,,,,,,,,,,PF,,,,,,,,1,0.946,,,,,,,,,,,,,,,,,,,,,,,,,,,,1,-134,34,1,0,0,response7disk,9,-3,4,1,0,0,rectangle,-63,-96,1,0,0,3,3,"[194,66,46,191,122,18,180,70,148,30,165,120,117,196,248,111,12,28,121,190]",11,6,1,0,0,0,111,110,110,15,1,response5disk_3,rectangle,,,,,,,,,,,,,,,,,,,
,,,,,,,,,,,,,,,,,,,,,,,,,,,,,,,,,,,,,,,,,,,5db43b6a2f45e7000bb7ab5c,5fb5f14e9cf6752068e776d7,2020-11-19_05h15.33.032,Colour_Similarity_Experiment,2020.1.2,Win32,60,5fb5945709dec70f2d595766,,,,,,,,,,,,,,,,,,,,PF,,,,,,,,2,1.284,,,,,,,,,,,,,,,,,,,,,,,,,,,,3,-130,-50,1,0,0,response5disk,5,-25,12,1,0,0,rectangle,-25,12,1,0,0,3,4,"[194,66,46,191,122,18,180,70,148,30,165,120,117,196,248,111,12,28,121,190]",-25,12,1,0,0,0,112,111,111,66,1,,,,,,,,,,,,,,,,,,,,,
,,,,,,,,,,,,,,,,,,,,,,,,,,,,,,,,,,,,,,,,,,,5db43b6a2f45e7000bb7ab5c,5fb5f14e9cf6752068e776d7,2020-11-19_05h15.33.032,Colour_Similarity_Experiment,2020.1.2,Win32,60,5fb5945709dec70f2d595766,,,,,,,,,,,,,,,,,,,,PF,,,,,,,,3,1.138,,,,,,,,,,,,,,,,,,,,,,,,,,,,3,-59,-61,1,0,0,response5disk,6,-6,14,1,0,0,rectangle,-6,14,1,0,0,3,2,"[194,66,46,191,122,18,180,70,148,30,165,120,117,196,248,111,12,28,121,190]",-6,14,1,0,0,0,113,112,112,47,1,,,,,,,,,,,,,,,,,,,,,
,,,,,,,,,,,,,,,,,,,,,,,,,,,,,,,,,,,,,,,,,,,5db43b6a2f45e7000bb7ab5c,5fb5f14e9cf6752068e776d7,2020-11-19_05h15.33.032,Colour_Similarity_Experiment,2020.1.2,Win32,60,5fb5945709dec70f2d595766,,,,,,,,,,,,,,,,,,,,FF,,,,,,,,3,1.217,,,,,,,,,,,,,,,,,,,,,,,,,,,,7,-35,-81,1,0,0,response5disk,5,-40,-6,1,0,0,rectangle,-40,-6,1,0,0,3,3,"[194,66,46,191,122,18,180,70,148,30,165,120,117,196,248,111,12,28,121,190]",-40,-6,1,0,0,0,114,113,113,156,1,,,,,,,,,,,,,,,,,,,,,
,,,,,,,,,,,,,,,,,,,,,,,,,,,,,,,,,,,,,,,,,,,5db43b6a2f45e7000bb7ab5c,5fb5f14e9cf6752068e776d7,2020-11-19_05h15.33.032,Colour_Similarity_Experiment,2020.1.2,Win32,60,5fb5945709dec70f2d595766,,,,,,,,,,,,,,,,,,,,FF,,,,,,,,2,1.082,,,,,,,,,,,,,,,,,,,,,,,,,,,,3,-103,-50,1,0,0,response5disk,4,-3,-3,1,0,0,rectangle,-3,-3,1,0,0,3,2,"[194,66,46,191,122,18,180,70,148,30,165,120,117,196,248,111,12,28,121,190]",-3,-3,1,0,0,0,115,114,114,110,1,,,,,,,,,,,,,,,,,,,,,
,,,,,,,,,,,,,,,,,,,,,,,,,,,,,,,,,,,,,,,,,,,5db43b6a2f45e7000bb7ab5c,5fb5f14e9cf6752068e776d7,2020-11-19_05h15.33.032,Colour_Similarity_Experiment,2020.1.2,Win32,60,5fb5945709dec70f2d595766,,,,,,,,,,,,,,,,,,,,PF,,,,,,,,2,1.116,,,,,,,,,,,,,,,,,,,,,,,,,,,,6,-78,-36,1,0,0,response5disk,7,-41,-5,1,0,0,rectangle,-41,-5,1,0,0,3,0,"[194,66,46,191,122,18,180,70,148,30,165,120,117,196,248,111,12,28,121,190]",-41,-5,1,0,0,0,116,115,115,50,1,,,,,,,,,,,,,,,,,,,,,
,,,,,,,,,,,,,,,,,,,,,,,,,,,,,,,,,,,,,,,,,,,5db43b6a2f45e7000bb7ab5c,5fb5f14e9cf6752068e776d7,2020-11-19_05h15.33.032,Colour_Similarity_Experiment,2020.1.2,Win32,60,5fb5945709dec70f2d595766,,,,,,,,,,,,,,,,,,,,FF,,,,,,,,0,1.016,,,,,,,,,,,,,,,,,,,,,,,,,,,,6,-69,141,1,0,0,response7disk,6,-19,3,1,0,0,rectangle,35,-129,1,0,0,4,4,"[194,66,46,191,122,18,180,70,148,30,165,120,117,196,248,111,12,28,121,190]",-16,-6,1,0,0,0,117,116,116,91,1,response3disk_3,rectangle,,,,,,,,,,,,,,,,,,,
,,,,,,,,,,,,,,,,,,,,,,,,,,,,,,,,,,,,,,,,,,,5db43b6a2f45e7000bb7ab5c,5fb5f14e9cf6752068e776d7,2020-11-19_05h15.33.032,Colour_Similarity_Experiment,2020.1.2,Win32,60,5fb5945709dec70f2d595766,,,,,,,,,,,,,,,,,,,,PF,,,,,,,,5,1.134,,,,,,,,,,,,,,,,,,,,,,,,,,,,9,82,-47,1,0,0,response3disk,5,6,-7,1,0,0,rectangle,6,-7,1,0,0,4,6,"[194,66,46,191,122,18,180,70,148,30,165,120,117,196,248,111,12,28,121,190]",6,-7,1,0,0,0,118,117,117,134,1,,,,,,,,,,,,,,,,,,,,,
,,,,,,,,,,,,,,,,,,,,,,,,,,,,,,,,,,,,,,,,,,,5db43b6a2f45e7000bb7ab5c,5fb5f14e9cf6752068e776d7,2020-11-19_05h15.33.032,Colour_Similarity_Experiment,2020.1.2,Win32,60,5fb5945709dec70f2d595766,,,,,,,,,,,,,,,,,,,,PF,,,,,,,,6,1.289,,,,,,,,,,,,,,,,,,,,,,,,,,,,1,100,44,1,0,0,response1disk,6,16,-6,1,0,0,rectangle,16,-6,1,0,0,4,5,"[194,66,46,191,122,18,180,70,148,30,165,120,117,196,248,111,12,28,121,190]",16,-6,1,0,0,0,119,118,118,144,1,,,,,,,,,,,,,,,,,,,,,
,,,,,,,,,,,,,,,,,,,,,,,,,,,,,,,,,,,,,,,,,,,5db43b6a2f45e7000bb7ab5c,5fb5f14e9cf6752068e776d7,2020-11-19_05h15.33.032,Colour_Similarity_Experiment,2020.1.2,Win32,60,5fb5945709dec70f2d595766,,,,,,,,,,,,,,,,,,,,PF,,,,,,,,1,1.033,,,,,,,,,,,,,,,,,,,,,,,,,,,,8,-105,48,1,0,0,response7disk,9,-21,7,1,0,0,rectangle,-44,97,1,0,0,0,0,"[194,66,46,191,122,18,180,70,148,30,165,120,117,196,248,111,12,28,121,190]",8,0,1,0,0,0,120,119,119,42,1,response7disk_3,rectangle,,,,,,,,,,,,,,,,,,,
,,,,,,,,,,,,,,,,,,,,,,,,,,,,,,,,,,,,,,,,,,,5db43b6a2f45e7000bb7ab5c,5fb5f14e9cf6752068e776d7,2020-11-19_05h15.33.032,Colour_Similarity_Experiment,2020.1.2,Win32,60,5fb5945709dec70f2d595766,,,,,,,,,,,,,,,,,,,,FF,,,,,,,,5,1.384,,,,,,,,,,,,,,,,,,,,,,,,,,,,4,106,-34,1,0,0,response3disk,1,8,-3,1,0,0,rectangle,-112,52,1,0,0,1,1,"[194,66,46,191,122,18,180,70,148,30,165,120,117,196,248,111,12,28,121,190]",2,-8,1,0,0,0,121,120,120,102,1,response7disk_3,rectangle,,,,,,,,,,,,,,,,,,,
,,,,,,,,,,,,,,,,,,,,,,,,,,,,,,,,,,,,,,,,,,,5db43b6a2f45e7000bb7ab5c,5fb5f14e9cf6752068e776d7,2020-11-19_05h15.33.032,Colour_Similarity_Experiment,2020.1.2,Win32,60,5fb5945709dec70f2d595766,,,,,,,,,,,,,,,,,,,,PF,,,,,,,,2,1.166,,,,,,,,,,,,,,,,,,,,,,,,,,,,2,-106,-33,1,0,0,response5disk,1,-26,-9,1,0,0,rectangle,48,103,1,0,0,7,7,"[194,66,46,191,122,18,180,70,148,30,165,120,117,196,248,111,12,28,121,190]",-31,-2,1,0,0,0,122,121,121,9,1,response1disk_3,rectangle,,,,,,,,,,,,,,,,,,,
,,,,,,,,,,,,,,,,,,,,,,,,,,,,,,,,,,,,,,,,,,,5db43b6a2f45e7000bb7ab5c,5fb5f14e9cf6752068e776d7,2020-11-19_05h15.33.032,Colour_Similarity_Experiment,2020.1.2,Win32,60,5fb5945709dec70f2d595766,,,,,,,,,,,,,,,,,,,,FF,,,,,,,,4,1.567,,,,,,,,,,,,,,,,,,,,,,,,,,,,2,68,-111,1,0,0,response3disk,9,-10,8,1,0,0,rectangle,-10,8,1,0,0,7,0,"[194,66,46,191,122,18,180,70,148,30,165,120,117,196,248,111,12,28,121,190]",-10,8,1,0,0,0,123,122,122,72,1,,,,,,,,,,,,,,,,,,,,,
,,,,,,,,,,,,,,,,,,,,,,,,,,,,,,,,,,,,,,,,,,,5db43b6a2f45e7000bb7ab5c,5fb5f14e9cf6752068e776d7,2020-11-19_05h15.33.032,Colour_Similarity_Experiment,2020.1.2,Win32,60,5fb5945709dec70f2d595766,,,,,,,,,,,,,,,,,,,,FF,,,,,,,,5,1.4,,,,,,,,,,,,,,,,,,,,,,,,,,,,1,92,-34,1,0,0,response3disk,5,26,-8,1,0,0,rectangle,26,-8,1,0,0,7,6,"[194,66,46,191,122,18,180,70,148,30,165,120,117,196,248,111,12,28,121,190]",26,-8,1,0,0,0,124,123,123,82,1,,,,,,,,,,,,,,,,,,,,,
,,,,,,,,,,,,,,,,,,,,,,,,,,,,,,,,,,,,,,,,,,,5db43b6a2f45e7000bb7ab5c,5fb5f14e9cf6752068e776d7,2020-11-19_05h15.33.032,Colour_Similarity_Experiment,2020.1.2,Win32,60,5fb5945709dec70f2d595766,,,,,,,,,,,,,,,,,,,,FF,,,,,,,,3,1.21,,,,,,,,,,,,,,,,,,,,,,,,,,,,5,-56,-84,1,0,0,response5disk,4,13,-4,1,0,0,rectangle,13,-4,1,0,0,7,4,"[194,66,46,191,122,18,180,70,148,30,165,120,117,196,248,111,12,28,121,190]",13,-4,1,0,0,0,125,124,124,8,1,,,,,,,,,,,,,,,,,,,,,
,,,,,,,,,,,,,,,,,,,,,,,,,,,,,,,,,,,,,,,,,,,5db43b6a2f45e7000bb7ab5c,5fb5f14e9cf6752068e776d7,2020-11-19_05h15.33.032,Colour_Similarity_Experiment,2020.1.2,Win32,60,5fb5945709dec70f2d595766,,,,,,,,,,,,,,,,,,,,FF,,,,,,,,3,0.983,,,,,,,,,,,,,,,,,,,,,,,,,,,,3,-32,-111,1,0,0,response5disk,5,11,1,1,0,0,rectangle,11,1,1,0,0,7,4,"[194,66,46,191,122,18,180,70,148,30,165,120,117,196,248,111,12,28,121,190]",11,1,1,0,0,0,126,125,125,101,1,,,,,,,,,,,,,,,,,,,,,
,,,,,,,,,,,,,,,,,,,,,,,,,,,,,,,,,,,,,,,,,,,5db43b6a2f45e7000bb7ab5c,5fb5f14e9cf6752068e776d7,2020-11-19_05h15.33.032,Colour_Similarity_Experiment,2020.1.2,Win32,60,5fb5945709dec70f2d595766,,,,,,,,,,,,,,,,,,,,FF,,,,,,,,0,1.306,,,,,,,,,,,,,,,,,,,,,,,,,,,,4,-71,126,1,0,0,response7disk,4,-13,-13,1,0,0,rectangle,-13,-13,1,0,0,7,0,"[194,66,46,191,122,18,180,70,148,30,165,120,117,196,248,111,12,28,121,190]",-13,-13,1,0,0,0,127,126,126,84,1,,,,,,,,,,,,,,,,,,,,,
,,,,,,,,,,,,,,,,,,,,,,,,,,,,,,,,,,,,,,,,,,,5db43b6a2f45e7000bb7ab5c,5fb5f14e9cf6752068e776d7,2020-11-19_05h15.33.032,Colour_Similarity_Experiment,2020.1.2,Win32,60,5fb5945709dec70f2d595766,,,,,,,,,,,,,,,,,,,,PF,,,,,,,,4,1.3,,,,,,,,,,,,,,,,,,,,,,,,,,,,5,23,-86,1,0,0,response3disk,2,-5,-3,1,0,0,rectangle,-5,-3,1,0,0,7,1,"[194,66,46,191,122,18,180,70,148,30,165,120,117,196,248,111,12,28,121,190]",-5,-3,1,0,0,0,128,127,127,129,1,,,,,,,,,,,,,,,,,,,,,
,,,,,,,,,,,,,,,,,,,,,,,,,,,,,,,,,,,,,,,,,,,5db43b6a2f45e7000bb7ab5c,5fb5f14e9cf6752068e776d7,2020-11-19_05h15.33.032,Colour_Similarity_Experiment,2020.1.2,Win32,60,5fb5945709dec70f2d595766,,,,,,,,,,,,,,,,,,,,FF,,,,,,,,5,1.333,,,,,,,,,,,,,,,,,,,,,,,,,,,,9,103,-50,1,0,0,response3disk,3,4,-4,1,0,0,rectangle,4,-4,1,0,0,7,6,"[194,66,46,191,122,18,180,70,148,30,165,120,117,196,248,111,12,28,121,190]",4,-4,1,0,0,0,129,128,128,141,1,,,,,,,,,,,,,,,,,,,,,
,,,,,,,,,,,,,,,,,,,,,,,,,,,,,,,,,,,,,,,,,,,5db43b6a2f45e7000bb7ab5c,5fb5f14e9cf6752068e776d7,2020-11-19_05h15.33.032,Colour_Similarity_Experiment,2020.1.2,Win32,60,5fb5945709dec70f2d595766,,,,,,,,,,,,,,,,,,,,FF,,,,,,,,5,1.4,,,,,,,,,,,,,,,,,,,,,,,,,,,,5,102,-54,1,0,0,response3disk,1,-1,0,1,0,0,rectangle,-1,0,1,0,0,7,4,"[194,66,46,191,122,18,180,70,148,30,165,120,117,196,248,111,12,28,121,190]",-1,0,1,0,0,0,130,129,129,131,1,,,,,,,,,,,,,,,,,,,,,
,,,,,,,,,,,,,,,,,,,,,,,,,,,,,,,,,,,,,,,,,,,5db43b6a2f45e7000bb7ab5c,5fb5f14e9cf6752068e776d7,2020-11-19_05h15.33.032,Colour_Similarity_Experiment,2020.1.2,Win32,60,5fb5945709dec70f2d595766,,,,,,,,,,,,,,,,,,,,FF,,,,,,,,3,1.216,,,,,,,,,,,,,,,,,,,,,,,,,,,,5,-40,-85,1,0,0,response5disk,7,-6,4,1,0,0,rectangle,-6,4,1,0,0,7,6,"[194,66,46,191,122,18,180,70,148,30,165,120,117,196,248,111,12,28,121,190]",-6,4,1,0,0,0,131,130,130,7,1,,,,,,,,,,,,,,,,,,,,,
,,,,,,,,,,,,,,,,,,,,,,,,,,,,,,,,,,,,,,,,,,,5db43b6a2f45e7000bb7ab5c,5fb5f14e9cf6752068e776d7,2020-11-19_05h15.33.032,Colour_Similarity_Experiment,2020.1.2,Win32,60,5fb5945709dec70f2d595766,,,,,,,,,,,,,,,,,,,,FF,,,,,,,,0,0.961,,,,,,,,,,,,,,,,,,,,,,,,,,,,3,-72,123,1,0,0,response7disk,3,-3,-10,1,0,0,rectangle,-3,-10,1,0,0,7,3,"[194,66,46,191,122,18,180,70,148,30,165,120,117,196,248,111,12,28,121,190]",-3,-10,1,0,0,0,132,131,131,68,1,,,,,,,,,,,,,,,,,,,,,
,,,,,,,,,,,,,,,,,,,,,,,,,,,,,,,,,,,,,,,,,,,5db43b6a2f45e7000bb7ab5c,5fb5f14e9cf6752068e776d7,2020-11-19_05h15.33.032,Colour_Similarity_Experiment,2020.1.2,Win32,60,5fb5945709dec70f2d595766,,,,,,,,,,,,,,,,,,,,FF,,,,,,,,3,1.118,,,,,,,,,,,,,,,,,,,,,,,,,,,,3,-56,-104,1,0,0,response5disk,2,-20,-17,1,0,0,rectangle,-20,-17,1,0,0,7,3,"[194,66,46,191,122,18,180,70,148,30,165,120,117,196,248,111,12,28,121,190]",-20,-17,1,0,0,0,133,132,132,93,1,,,,,,,,,,,,,,,,,,,,,
,,,,,,,,,,,,,,,,,,,,,,,,,,,,,,,,,,,,,,,,,,,5db43b6a2f45e7000bb7ab5c,5fb5f14e9cf6752068e776d7,2020-11-19_05h15.33.032,Colour_Similarity_Experiment,2020.1.2,Win32,60,5fb5945709dec70f2d595766,,,,,,,,,,,,,,,,,,,,PF,,,,,,,,6,3.317,,,,,,,,,,,,,,,,,,,,,,,,,,,,7,95,34,1,0,0,response1disk,1,21,0,1,0,0,rectangle,21,0,1,0,0,7,6,"[194,66,46,191,122,18,180,70,148,30,165,120,117,196,248,111,12,28,121,190]",21,0,1,0,0,0,134,133,133,53,1,,,,,,,,,,,,,,,,,,,,,
,,,,,,,,,,,,,,,,,,,,,,,,,,,,,,,,,,,,,,,,,,,5db43b6a2f45e7000bb7ab5c,5fb5f14e9cf6752068e776d7,2020-11-19_05h15.33.032,Colour_Similarity_Experiment,2020.1.2,Win32,60,5fb5945709dec70f2d595766,,,,,,,,,,,,,,,,,,,,FF,,,,,,,,1,1.547,,,,,,,,,,,,,,,,,,,,,,,,,,,,8,-105,63,1,0,0,response7disk,9,30,2,1,0,0,rectangle,30,2,1,0,0,7,7,"[194,66,46,191,122,18,180,70,148,30,165,120,117,196,248,111,12,28,121,190]",30,2,1,0,0,0,135,134,134,105,1,,,,,,,,,,,,,,,,,,,,,
,,,,,,,,,,,,,,,,,,,,,,,,,,,,,,,,,,,,,,,,,,,5db43b6a2f45e7000bb7ab5c,5fb5f14e9cf6752068e776d7,2020-11-19_05h15.33.032,Colour_Similarity_Experiment,2020.1.2,Win32,60,5fb5945709dec70f2d595766,,,,,,,,,,,,,,,,,,,,PF,,,,,,,,1,1.017,,,,,,,,,,,,,,,,,,,,,,,,,,,,4,-83,39,1,0,0,response7disk,3,-3,1,1,0,0,rectangle,-3,1,1,0,0,7,4,"[194,66,46,191,122,18,180,70,148,30,165,120,117,196,248,111,12,28,121,190]",-3,1,1,0,0,0,136,135,135,89,1,,,,,,,,,,,,,,,,,,,,,
,,,,,,,,,,,,,,,,,,,,,,,,,,,,,,,,,,,,,,,,,,,5db43b6a2f45e7000bb7ab5c,5fb5f14e9cf6752068e776d7,2020-11-19_05h15.33.032,Colour_Similarity_Experiment,2020.1.2,Win32,60,5fb5945709dec70f2d595766,,,,,,,,,,,,,,,,,,,,FF,,,,,,,,5,1.201,,,,,,,,,,,,,,,,,,,,,,,,,,,,9,60,-39,1,0,0,response3disk,5,-14,7,1,0,0,rectangle,-14,7,1,0,0,7,4,"[194,66,46,191,122,18,180,70,148,30,165,120,117,196,248,111,12,28,121,190]",-14,7,1,0,0,0,137,136,136,128,1,,,,,,,,,,,,,,,,,,,,,
,,,,,,,,,,,,,,,,,,,,,,,,,,,,,,,,,,,,,,,,,,,5db43b6a2f45e7000bb7ab5c,5fb5f14e9cf6752068e776d7,2020-11-19_05h15.33.032,Colour_Similarity_Experiment,2020.1.2,Win32,60,5fb5945709dec70f2d595766,,,,,,,,,,,,,,,,,,,,PF,,,,,,,,4,74.637,,,,,,,,,,,,,,,,,,,,,,,,,,,,9,41,-95,1,0,0,response3disk,6,-27,11,1,0,0,rectangle,-27,11,1,0,0,7,3,"[194,66,46,191,122,18,180,70,148,30,165,120,117,196,248,111,12,28,121,190]",-27,11,1,0,0,0,138,137,137,148,1,,,,,,,,,,,,,,,,,,,,,
,,,,,,,,,,,,,,,,,,,,,,,,,,,,,,,,,,,,,,,,,,,5db43b6a2f45e7000bb7ab5c,5fb5f14e9cf6752068e776d7,2020-11-19_05h15.33.032,Colour_Similarity_Experiment,2020.1.2,Win32,60,5fb5945709dec70f2d595766,,,,,,,,,,,,,,,,,,,,PF,,,,,,,,3,2.867,,,,,,,,,,,,,,,,,,,,,,,,,,,,7,-22,-110,1,0,0,response5disk,9,-2,-4,1,0,0,rectangle,-2,-4,1,0,0,7,1,"[194,66,46,191,122,18,180,70,148,30,165,120,117,196,248,111,12,28,121,190]",-2,-4,1,0,0,0,139,138,138,10,1,,,,,,,,,,,,,,,,,,,,,
,,,,,,,,,,,,,,,,,,,,,,,,,,,,,,,,,,,,,,,,,,,5db43b6a2f45e7000bb7ab5c,5fb5f14e9cf6752068e776d7,2020-11-19_05h15.33.032,Colour_Similarity_Experiment,2020.1.2,Win32,60,5fb5945709dec70f2d595766,,,,,,,,,,,,,,,,,,,,FF,,,,,,,,3,1.017,,,,,,,,,,,,,,,,,,,,,,,,,,,,7,-50,-127,1,0,0,response5disk,8,3,-3,1,0,0,rectangle,3,-3,1,0,0,7,6,"[194,66,46,191,122,18,180,70,148,30,165,120,117,196,248,111,12,28,121,190]",3,-3,1,0,0,0,140,139,139,97,1,,,,,,,,,,,,,,,,,,,,,
,,,,,,,,,,,,,,,,,,,,,,,,,,,,,,,,,,,,,,,,,,,5db43b6a2f45e7000bb7ab5c,5fb5f14e9cf6752068e776d7,2020-11-19_05h15.33.032,Colour_Similarity_Experiment,2020.1.2,Win32,60,5fb5945709dec70f2d595766,,,,,,,,,,,,,,,,,,,,FF,,,,,,,,4,1.717,,,,,,,,,,,,,,,,,,,,,,,,,,,,6,42,-129,1,0,0,response3disk,1,-9,5,1,0,0,rectangle,-9,5,1,0,0,7,7,"[194,66,46,191,122,18,180,70,148,30,165,120,117,196,248,111,12,28,121,190]",-9,5,1,0,0,0,141,140,140,5,1,,,,,,,,,,,,,,,,,,,,,
,,,,,,,,,,,,,,,,,,,,,,,,,,,,,,,,,,,,,,,,,,,5db43b6a2f45e7000bb7ab5c,5fb5f14e9cf6752068e776d7,2020-11-19_05h15.33.032,Colour_Similarity_Experiment,2020.1.2,Win32,60,5fb5945709dec70f2d595766,,,,,,,,,,,,,,,,,,,,FF,,,,,,,,5,1.167,,,,,,,,,,,,,,,,,,,,,,,,,,,,8,72,-43,1,0,0,response3disk,3,8,-13,1,0,0,rectangle,8,-13,1,0,0,7,1,"[194,66,46,191,122,18,180,70,148,30,165,120,117,196,248,111,12,28,121,190]",8,-13,1,0,0,0,142,141,141,154,1,,,,,,,,,,,,,,,,,,,,,
,,,,,,,,,,,,,,,,,,,,,,,,,,,,,,,,,,,,,,,,,,,5db43b6a2f45e7000bb7ab5c,5fb5f14e9cf6752068e776d7,2020-11-19_05h15.33.032,Colour_Similarity_Experiment,2020.1.2,Win32,60,5fb5945709dec70f2d595766,,,,,,,,,,,,,,,,,,,,PF,,,,,,,,6,0.983,,,,,,,,,,,,,,,,,,,,,,,,,,,,2,100,58,1,0,0,response1disk,9,11,-17,1,0,0,rectangle,11,-17,1,0,0,7,7,"[194,66,46,191,122,18,180,70,148,30,165,120,117,196,248,111,12,28,121,190]",11,-17,1,0,0,0,143,142,142,39,1,,,,,,,,,,,,,,,,,,,,,
,,,,,,,,,,,,,,,,,,,,,,,,,,,,,,,,,,,,,,,,,,,5db43b6a2f45e7000bb7ab5c,5fb5f14e9cf6752068e776d7,2020-11-19_05h15.33.032,Colour_Similarity_Experiment,2020.1.2,Win32,60,5fb5945709dec70f2d595766,,,,,,,,,,,,,,,,,,,,FF,,,,,,,,0,1.016,,,,,,,,,,,,,,,,,,,,,,,,,,,,8,-72,122,1,0,0,response7disk,8,-3,1,1,0,0,rectangle,-3,1,1,0,0,7,2,"[194,66,46,191,122,18,180,70,148,30,165,120,117,196,248,111,12,28,121,190]",-3,1,1,0,0,0,144,143,143,48,1,,,,,,,,,,,,,,,,,,,,,
,,,,,,,,,,,,,,,,,,,,,,,,,,,,,,,,,,,,,,,,,,,5db43b6a2f45e7000bb7ab5c,5fb5f14e9cf6752068e776d7,2020-11-19_05h15.33.032,Colour_Similarity_Experiment,2020.1.2,Win32,60,5fb5945709dec70f2d595766,,,,,,,,,,,,,,,,,,,,FF,,,,,,,,4,1.25,,,,,,,,,,,,,,,,,,,,,,,,,,,,2,31,-94,1,0,0,response3disk,4,0,5,1,0,0,rectangle,0,5,1,0,0,7,5,"[194,66,46,191,122,18,180,70,148,30,165,120,117,196,248,111,12,28,121,190]",0,5,1,0,0,0,145,144,144,145,1,,,,,,,,,,,,,,,,,,,,,
,,,,,,,,,,,,,,,,,,,,,,,,,,,,,,,,,,,,,,,,,,,5db43b6a2f45e7000bb7ab5c,5fb5f14e9cf6752068e776d7,2020-11-19_05h15.33.032,Colour_Similarity_Experiment,2020.1.2,Win32,60,5fb5945709dec70f2d595766,,,,,,,,,,,,,,,,,,,,PF,,,,,,,,6,1.034,,,,,,,,,,,,,,,,,,,,,,,,,,,,3,100,65,1,0,0,response1disk,1,9,-11,1,0,0,rectangle,9,-11,1,0,0,7,6,"[194,66,46,191,122,18,180,70,148,30,165,120,117,196,248,111,12,28,121,190]",9,-11,1,0,0,0,146,145,145,96,1,,,,,,,,,,,,,,,,,,,,,
,,,,,,,,,,,,,,,,,,,,,,,,,,,,,,,,,,,,,,,,,,,5db43b6a2f45e7000bb7ab5c,5fb5f14e9cf6752068e776d7,2020-11-19_05h15.33.032,Colour_Similarity_Experiment,2020.1.2,Win32,60,5fb5945709dec70f2d595766,,,,,,,,,,,,,,,,,,,,PF,,,,,,,,7,1.299,,,,,,,,,,,,,,,,,,,,,,,,,,,,2,31,70,1,0,0,response1disk,5,18,14,1,0,0,rectangle,18,14,1,0,0,7,2,"[194,66,46,191,122,18,180,70,148,30,165,120,117,196,248,111,12,28,121,190]",18,14,1,0,0,0,147,146,146,147,1,,,,,,,,,,,,,,,,,,,,,
,,,,,,,,,,,,,,,,,,,,,,,,,,,,,,,,,,,,,,,,,,,5db43b6a2f45e7000bb7ab5c,5fb5f14e9cf6752068e776d7,2020-11-19_05h15.33.032,Colour_Similarity_Experiment,2020.1.2,Win32,60,5fb5945709dec70f2d595766,,,,,,,,,,,,,,,,,,,,FF,,,,,,,,1,0.95,,,,,,,,,,,,,,,,,,,,,,,,,,,,9,-110,40,1,0,0,response7disk,8,-9,-2,1,0,0,rectangle,-41,-92,1,0,0,3,3,"[194,66,46,191,122,18,180,70,148,30,165,120,117,196,248,111,12,28,121,190]",26,2,1,0,0,0,148,147,147,6,1,response5disk_3,rectangle,,,,,,,,,,,,,,,,,,,
,,,,,,,,,,,,,,,,,,,,,,,,,,,,,,,,,,,,,,,,,,,5db43b6a2f45e7000bb7ab5c,5fb5f14e9cf6752068e776d7,2020-11-19_05h15.33.032,Colour_Similarity_Experiment,2020.1.2,Win32,60,5fb5945709dec70f2d595766,,,,,,,,,,,,,,,,,,,,FF,,,,,,,,5,1.3,,,,,,,,,,,,,,,,,,,,,,,,,,,,1,70,-42,1,0,0,response3disk,4,24,3,1,0,0,rectangle,24,3,1,0,0,3,3,"[194,66,46,191,122,18,180,70,148,30,165,120,117,196,248,111,12,28,121,190]",24,3,1,0,0,0,149,148,148,135,1,,,,,,,,,,,,,,,,,,,,,
,,,,,,,,,,,,,,,,,,,,,,,,,,,,,,,,,,,,,,,,,,,5db43b6a2f45e7000bb7ab5c,5fb5f14e9cf6752068e776d7,2020-11-19_05h15.33.032,Colour_Similarity_Experiment,2020.1.2,Win32,60,5fb5945709dec70f2d595766,,,,,,,,,,,,,,,,,,,,PF,,,,,,,,3,1.45,,,,,,,,,,,,,,,,,,,,,,,,,,,,2,-64,-71,1,0,0,response5disk,3,8,5,1,0,0,rectangle,8,5,1,0,0,3,5,"[194,66,46,191,122,18,180,70,148,30,165,120,117,196,248,111,12,28,121,190]",8,5,1,0,0,0,150,149,149,69,1,,,,,,,,,,,,,,,,,,,,,
,,,,,,,,,,,,,,,,,,,,,,,,,,,,,,,,,,,,,,,,,,,5db43b6a2f45e7000bb7ab5c,5fb5f14e9cf6752068e776d7,2020-11-19_05h15.33.032,Colour_Similarity_Experiment,2020.1.2,Win32,60,5fb5945709dec70f2d595766,,,,,,,,,,,,,,,,,,,,FF,,,,,,,,3,0.8,,,,,,,,,,,,,,,,,,,,,,,,,,,,2,-44,-74,1,0,0,response5disk,3,-6,8,1,0,0,rectangle,-6,8,1,0,0,3,6,"[194,66,46,191,122,18,180,70,148,30,165,120,117,196,248,111,12,28,121,190]",-6,8,1,0,0,0,151,150,150,104,1,,,,,,,,,,,,,,,,,,,,,
,,,,,,,,,,,,,,,,,,,,,,,,,,,,,,,,,,,,,,,,,,,5db43b6a2f45e7000bb7ab5c,5fb5f14e9cf6752068e776d7,2020-11-19_05h15.33.032,Colour_Similarity_Experiment,2020.1.2,Win32,60,5fb5945709dec70f2d595766,,,,,,,,,,,,,,,,,,,,PF,,,,,,,,1,1.033,,,,,,,,,,,,,,,,,,,,,,,,,,,,9,-67,27,1,0,0,response7disk,8,5,2,1,0,0,rectangle,5,2,1,0,0,3,5,"[194,66,46,191,122,18,180,70,148,30,165,120,117,196,248,111,12,28,121,190]",5,2,1,0,0,0,152,151,151,67,1,,,,,,,,,,,,,,,,,,,,,
,,,,,,,,,,,,,,,,,,,,,,,,,,,,,,,,,,,,,,,,,,,5db43b6a2f45e7000bb7ab5c,5fb5f14e9cf6752068e776d7,2020-11-19_05h15.33.032,Colour_Similarity_Experiment,2020.1.2,Win32,60,5fb5945709dec70f2d595766,,,,,,,,,,,,,,,,,,,,FF,,,,,,,,3,1.833,,,,,,,,,,,,,,,,,,,,,,,,,,,,8,-33,-115,1,0,0,response5disk,5,18,2,1,0,0,rectangle,18,2,1,0,0,3,3,"[194,66,46,191,122,18,180,70,148,30,165,120,117,196,248,111,12,28,121,190]",18,2,1,0,0,0,153,152,152,152,1,,,,,,,,,,,,,,,,,,,,,
,,,,,,,,,,,,,,,,,,,,,,,,,,,,,,,,,,,,,,,,,,,5db43b6a2f45e7000bb7ab5c,5fb5f14e9cf6752068e776d7,2020-11-19_05h15.33.032,Colour_Similarity_Experiment,2020.1.2,Win32,60,5fb5945709dec70f2d595766,,,,,,,,,,,,,,,,,,,,FF,,,,,,,,3,1.2,,,,,,,,,,,,,,,,,,,,,,,,,,,,6,-48,-84,1,0,0,response5disk,8,10,4,1,0,0,rectangle,10,4,1,0,0,3,7,"[194,66,46,191,122,18,180,70,148,30,165,120,117,196,248,111,12,28,121,190]",10,4,1,0,0,0,154,153,153,133,1,,,,,,,,,,,,,,,,,,,,,
,,,,,,,,,,,,,,,,,,,,,,,,,,,,,,,,,,,,,,,,,,,5db43b6a2f45e7000bb7ab5c,5fb5f14e9cf6752068e776d7,2020-11-19_05h15.33.032,Colour_Similarity_Experiment,2020.1.2,Win32,60,5fb5945709dec70f2d595766,,,,,,,,,,,,,,,,,,,,FF,,,,,,,,2,1.249,,,,,,,,,,,,,,,,,,,,,,,,,,,,6,-86,-46,1,0,0,response5disk,7,-20,18,1,0,0,rectangle,-20,18,1,0,0,3,1,"[194,66,46,191,122,18,180,70,148,30,165,120,117,196,248,111,12,28,121,190]",-20,18,1,0,0,0,155,154,154,18,1,,,,,,,,,,,,,,,,,,,,,
,,,,,,,,,,,,,,,,,,,,,,,,,,,,,,,,,,,,,,,,,,,5db43b6a2f45e7000bb7ab5c,5fb5f14e9cf6752068e776d7,2020-11-19_05h15.33.032,Colour_Similarity_Experiment,2020.1.2,Win32,60,5fb5945709dec70f2d595766,,,,,,,,,,,,,,,,,,,,PF,,,,,,,,0,0.934,,,,,,,,,,,,,,,,,,,,,,,,,,,,1,-57,121,1,0,0,response7disk,1,-21,0,1,0,0,rectangle,-21,0,1,0,0,3,0,"[194,66,46,191,122,18,180,70,148,30,165,120,117,196,248,111,12,28,121,190]",-21,0,1,0,0,0,156,155,155,76,1,,,,,,,,,,,,,,,,,,,,,
,,,,,,,,,,,,,,,,,,,,,,,,,,,,,,,,,,,,,,,,,,,5db43b6a2f45e7000bb7ab5c,5fb5f14e9cf6752068e776d7,2020-11-19_05h15.33.032,Colour_Similarity_Experiment,2020.1.2,Win32,60,5fb5945709dec70f2d595766,,,,,,,,,,,,,,,,,,,,PF,,,,,,,,1,0.789,,,,,,,,,,,,,,,,,,,,,,,,,,,,3,-126,43,1,0,0,response7disk,4,-24,10,1,0,0,rectangle,-24,10,1,0,0,3,6,"[194,66,46,191,122,18,180,70,148,30,165,120,117,196,248,111,12,28,121,190]",-24,10,1,0,0,0,157,156,156,30,1,,,,,,,,,,,,,,,,,,,,,
,,,,,,,,,,,,,,,,,,,,,,,,,,,,,,,,,,,,,,,,,,,5db43b6a2f45e7000bb7ab5c,5fb5f14e9cf6752068e776d7,2020-11-19_05h15.33.032,Colour_Similarity_Experiment,2020.1.2,Win32,60,5fb5945709dec70f2d595766,,,,,,,,,,,,,,,,,,,,FF,,,,,,,,5,1.717,,,,,,,,,,,,,,,,,,,,,,,,,,,,1,120,-54,1,0,0,response3disk,7,14,1,1,0,0,rectangle,14,1,1,0,0,3,2,"[194,66,46,191,122,18,180,70,148,30,165,120,117,196,248,111,12,28,121,190]",14,1,1,0,0,0,158,157,157,137,1,,,,,,,,,,,,,,,,,,,,,
,,,,,,,,,,,,,,,,,,,,,,,,,,,,,,,,,,,,,,,,,,,5db43b6a2f45e7000bb7ab5c,5fb5f14e9cf6752068e776d7,2020-11-19_05h15.33.032,Colour_Similarity_Experiment,2020.1.2,Win32,60,5fb5945709dec70f2d595766,,,,,,,,,,,,,,,,,,,,PF,,,,,,,,5,0.884,,,,,,,,,,,,,,,,,,,,,,,,,,,,5,79,-54,1,0,0,response3disk,1,7,-1,1,0,0,rectangle,7,-1,1,0,0,3,2,"[194,66,46,191,122,18,180,70,148,30,165,120,117,196,248,111,12,28,121,190]",7,-1,1,0,0,0,159,158,158,159,1,,,,,,,,,,,,,,,,,,,,,
,,,,,,,,,,,,,,,,,,,,,,,,,,,,,,,,,,,,,,,,,,,5db43b6a2f45e7000bb7ab5c,5fb5f14e9cf6752068e776d7,2020-11-19_05h15.33.032,Colour_Similarity_Experiment,2020.1.2,Win32,60,5fb5945709dec70f2d595766,,,,,,,,,,,,,,,,,,,,PF,,,,,,,,5,2.933,,,,,,,,,,,,,,,,,,,,,,,,,,,,2,95,-30,1,0,0,response3disk,4,36,-5,1,0,0,rectangle,36,-5,1,0,0,3,5,"[194,66,46,191,122,18,180,70,148,30,165,120,117,196,248,111,12,28,121,190]",36,-5,1,0,0,0,160,159,159,127,1,,,,,,,,,,,,,,,,,,,,,
,,,,,,,,,,,,,,,,,,,,,,,,,,,,,,,,,,,,,,,,,,,5db43b6a2f45e7000bb7ab5c,5fb5f14e9cf6752068e776d7,2020-11-19_05h15.33.032,Colour_Similarity_Experiment,2020.1.2,Win32,60,5fb5945709dec70f2d595766,,,,,,,,,,,,,,,,,,,,FF,,,,,,,,6,1.033,,,,,,,,,,,,,,,,,,,,,,,,,,,,3,102,47,1,0,0,response1disk,8,31,1,1,0,0,rectangle,31,1,1,0,0,3,5,"[194,66,46,191,122,18,180,70,148,30,165,120,117,196,248,111,12,28,121,190]",31,1,1,0,0,0,161,160,160,44,1,,,,,,,,,,,,,,,,,,,,,
,,,,,,,,,,,,,,,,,,,,,,,,,,,,,,,,,,,,,,,,,,,5db43b6a2f45e7000bb7ab5c,5fb5f14e9cf6752068e776d7,2020-11-19_05h15.33.032,Colour_Similarity_Experiment,2020.1.2,Win32,60,5fb5945709dec70f2d595766,,,,,,,,,,,,,,,,,,,,PF,,,,,,,,4,1.084,,,,,,,,,,,,,,,,,,,,,,,,,,,,3,42,-74,1,0,0,response3disk,7,-9,-11,1,0,0,rectangle,-9,-11,1,0,0,3,4,"[194,66,46,191,122,18,180,70,148,30,165,120,117,196,248,111,12,28,121,190]",-9,-11,1,0,0,0,162,161,161,41,1,,,,,,,,,,,,,,,,,,,,,
,,,,,,,,,,,,,,,,,,,,,,,,,,,,,,,,,,,,,,,,,,,5db43b6a2f45e7000bb7ab5c,5fb5f14e9cf6752068e776d7,2020-11-19_05h15.33.032,Colour_Similarity_Experiment,2020.1.2,Win32,60,5fb5945709dec70f2d595766,,,,,,,,,,,,,,,,,,,,,,,,,,,,,,,,,,,,,,,,,,,,,,,,,,,,,,,,,,,,,,,,,,,,,,,,,,,,,,,,,,,,,,,,,,,,0,0,0,0,1,,,,,,,,,,,,,,
,,,,,,,,,,,,,,,,,,,,,,,,,,,,,,,,,,,,,,,,,,,5db43b6a2f45e7000bb7ab5c,5fb5f14e9cf6752068e776d7,2020-11-19_05h15.33.032,Colour_Similarity_Experiment,2020.1.2,Win32,60,5fb5945709dec70f2d595766,,,,,,,,,,,,,,,,,,,,PF,,,,,,,,4,1.189,,,,,,,,,,,,,,,,,,,,,,,,,,,,7,39,-80,1,0,0,response3disk,3,-2,-10,1,0,0,rectangle,-2,-10,1,0,0,3,0,"[194,66,46,191,122,18,180,70,148,30,165,120,117,196,248,111,12,28,121,190]",-2,-10,1,0,0,0,163,0,0,81,1,,,,,,,,,,,,,,,,,,,,,
,,,,,,,,,,,,,,,,,,,,,,,,,,,,,,,,,,,,,,,,,,,5db43b6a2f45e7000bb7ab5c,5fb5f14e9cf6752068e776d7,2020-11-19_05h15.33.032,Colour_Similarity_Experiment,2020.1.2,Win32,60,5fb5945709dec70f2d595766,,,,,,,,,,,,,,,,,,,,PF,,,,,,,,3,1.783,,,,,,,,,,,,,,,,,,,,,,,,,,,,8,-58,-70,1,0,0,response5disk,7,-3,5,1,0,0,rectangle,-3,5,1,0,0,3,2,"[194,66,46,191,122,18,180,70,148,30,165,120,117,196,248,111,12,28,121,190]",-3,5,1,0,0,0,164,1,1,23,1,,,,,,,,,,,,,,,,,,,,,
,,,,,,,,,,,,,,,,,,,,,,,,,,,,,,,,,,,,,,,,,,,5db43b6a2f45e7000bb7ab5c,5fb5f14e9cf6752068e776d7,2020-11-19_05h15.33.032,Colour_Similarity_Experiment,2020.1.2,Win32,60,5fb5945709dec70f2d595766,,,,,,,,,,,,,,,,,,,,FF,,,,,,,,3,2.001,,,,,,,,,,,,,,,,,,,,,,,,,,,,8,-47,-94,1,0,0,response5disk,6,7,8,1,0,0,rectangle,-111,36,1,0,0,1,1,"[194,66,46,191,122,18,180,70,148,30,165,120,117,196,248,111,12,28,121,190]",-28,13,1,0,0,0,165,2,2,37,1,response7disk_3,rectangle,,,,,,,,,,,,,,,,,,,
,,,,,,,,,,,,,,,,,,,,,,,,,,,,,,,,,,,,,,,,,,,5db43b6a2f45e7000bb7ab5c,5fb5f14e9cf6752068e776d7,2020-11-19_05h15.33.032,Colour_Similarity_Experiment,2020.1.2,Win32,60,5fb5945709dec70f2d595766,,,,,,,,,,,,,,,,,,,,FF,,,,,,,,2,1.884,,,,,,,,,,,,,,,,,,,,,,,,,,,,1,-118,-53,1,0,0,response5disk,8,4,1,1,0,0,rectangle,4,1,1,0,0,1,2,"[194,66,46,191,122,18,180,70,148,30,165,120,117,196,248,111,12,28,121,190]",4,1,1,0,0,0,166,3,3,27,1,,,,,,,,,,,,,,,,,,,,,
,,,,,,,,,,,,,,,,,,,,,,,,,,,,,,,,,,,,,,,,,,,5db43b6a2f45e7000bb7ab5c,5fb5f14e9cf6752068e776d7,2020-11-19_05h15.33.032,Colour_Similarity_Experiment,2020.1.2,Win32,60,5fb5945709dec70f2d595766,,,,,,,,,,,,,,,,,,,,FF,,,,,,,,0,0.916,,,,,,,,,,,,,,,,,,,,,,,,,,,,7,-52,129,1,0,0,response7disk,7,-12,-5,1,0,0,rectangle,-12,-5,1,0,0,1,0,"[194,66,46,191,122,18,180,70,148,30,165,120,117,196,248,111,12,28,121,190]",-12,-5,1,0,0,0,167,4,4,34,1,,,,,,,,,,,,,,,,,,,,,
,,,,,,,,,,,,,,,,,,,,,,,,,,,,,,,,,,,,,,,,,,,5db43b6a2f45e7000bb7ab5c,5fb5f14e9cf6752068e776d7,2020-11-19_05h15.33.032,Colour_Similarity_Experiment,2020.1.2,Win32,60,5fb5945709dec70f2d595766,,,,,,,,,,,,,,,,,,,,FF,,,,,,,,5,1.598,,,,,,,,,,,,,,,,,,,,,,,,,,,,7,103,-48,1,0,0,response3disk,2,21,-1,1,0,0,rectangle,21,-1,1,0,0,1,1,"[194,66,46,191,122,18,180,70,148,30,165,120,117,196,248,111,12,28,121,190]",21,-1,1,0,0,0,168,5,5,138,1,,,,,,,,,,,,,,,,,,,,,
,,,,,,,,,,,,,,,,,,,,,,,,,,,,,,,,,,,,,,,,,,,5db43b6a2f45e7000bb7ab5c,5fb5f14e9cf6752068e776d7,2020-11-19_05h15.33.032,Colour_Similarity_Experiment,2020.1.2,Win32,60,5fb5945709dec70f2d595766,,,,,,,,,,,,,,,,,,,,PF,,,,,,,,6,1.099,,,,,,,,,,,,,,,,,,,,,,,,,,,,9,130,30,1,0,0,response1disk,3,18,-4,1,0,0,rectangle,18,-4,1,0,0,1,1,"[194,66,46,191,122,18,180,70,148,30,165,120,117,196,248,111,12,28,121,190]",18,-4,1,0,0,0,169,6,6,119,1,,,,,,,,,,,,,,,,,,,,,
,,,,,,,,,,,,,,,,,,,,,,,,,,,,,,,,,,,,,,,,,,,5db43b6a2f45e7000bb7ab5c,5fb5f14e9cf6752068e776d7,2020-11-19_05h15.33.032,Colour_Similarity_Experiment,2020.1.2,Win32,60,5fb5945709dec70f2d595766,,,,,,,,,,,,,,,,,,,,PF,,,,,,,,3,1.95,,,,,,,,,,,,,,,,,,,,,,,,,,,,6,-39,-106,1,0,0,response5disk,8,41,-11,1,0,0,rectangle,41,-11,1,0,0,1,0,"[194,66,46,191,122,18,180,70,148,30,165,120,117,196,248,111,12,28,121,190]",41,-11,1,0,0,0,170,7,7,64,1,,,,,,,,,,,,,,,,,,,,,
,,,,,,,,,,,,,,,,,,,,,,,,,,,,,,,,,,,,,,,,,,,5db43b6a2f45e7000bb7ab5c,5fb5f14e9cf6752068e776d7,2020-11-19_05h15.33.032,Colour_Similarity_Experiment,2020.1.2,Win32,60,5fb5945709dec70f2d595766,,,,,,,,,,,,,,,,,,,,FF,,,,,,,,3,1.216,,,,,,,,,,,,,,,,,,,,,,,,,,,,3,-27,-68,1,0,0,response5disk,6,-6,-20,1,0,0,rectangle,-6,-20,1,0,0,1,5,"[194,66,46,191,122,18,180,70,148,30,165,120,117,196,248,111,12,28,121,190]",-6,-20,1,0,0,0,171,8,8,95,1,,,,,,,,,,,,,,,,,,,,,
,,,,,,,,,,,,,,,,,,,,,,,,,,,,,,,,,,,,,,,,,,,5db43b6a2f45e7000bb7ab5c,5fb5f14e9cf6752068e776d7,2020-11-19_05h15.33.032,Colour_Similarity_Experiment,2020.1.2,Win32,60,5fb5945709dec70f2d595766,,,,,,,,,,,,,,,,,,,,FF,,,,,,,,4,1.157,,,,,,,,,,,,,,,,,,,,,,,,,,,,5,65,-107,1,0,0,response3disk,8,-13,-7,1,0,0,rectangle,-13,-7,1,0,0,1,5,"[194,66,46,191,122,18,180,70,148,30,165,120,117,196,248,111,12,28,121,190]",-13,-7,1,0,0,0,172,9,9,16,1,,,,,,,,,,,,,,,,,,,,,
,,,,,,,,,,,,,,,,,,,,,,,,,,,,,,,,,,,,,,,,,,,5db43b6a2f45e7000bb7ab5c,5fb5f14e9cf6752068e776d7,2020-11-19_05h15.33.032,Colour_Similarity_Experiment,2020.1.2,Win32,60,5fb5945709dec70f2d595766,,,,,,,,,,,,,,,,,,,,PF,,,,,,,,4,1.659,,,,,,,,,,,,,,,,,,,,,,,,,,,,7,38,-76,1,0,0,response3disk,4,-4,-5,1,0,0,rectangle,-4,-5,1,0,0,1,2,"[194,66,46,191,122,18,180,70,148,30,165,120,117,196,248,111,12,28,121,190]",-4,-5,1,0,0,0,173,10,10,43,1,,,,,,,,,,,,,,,,,,,,,
,,,,,,,,,,,,,,,,,,,,,,,,,,,,,,,,,,,,,,,,,,,5db43b6a2f45e7000bb7ab5c,5fb5f14e9cf6752068e776d7,2020-11-19_05h15.33.032,Colour_Similarity_Experiment,2020.1.2,Win32,60,5fb5945709dec70f2d595766,,,,,,,,,,,,,,,,,,,,FF,,,,,,,,4,1.249,,,,,,,,,,,,,,,,,,,,,,,,,,,,6,79,-112,1,0,0,response3disk,9,-22,-9,1,0,0,rectangle,-22,-9,1,0,0,1,1,"[194,66,46,191,122,18,180,70,148,30,165,120,117,196,248,111,12,28,121,190]",-22,-9,1,0,0,0,174,11,11,160,1,,,,,,,,,,,,,,,,,,,,,
,,,,,,,,,,,,,,,,,,,,,,,,,,,,,,,,,,,,,,,,,,,5db43b6a2f45e7000bb7ab5c,5fb5f14e9cf6752068e776d7,2020-11-19_05h15.33.032,Colour_Similarity_Experiment,2020.1.2,Win32,60,5fb5945709dec70f2d595766,,,,,,,,,,,,,,,,,,,,PF,,,,,,,,3,1.183,,,,,,,,,,,,,,,,,,,,,,,,,,,,5,-56,-71,1,0,0,response5disk,6,-5,-10,1,0,0,rectangle,-5,-10,1,0,0,1,1,"[194,66,46,191,122,18,180,70,148,30,165,120,117,196,248,111,12,28,121,190]",-5,-10,1,0,0,0,175,12,12,103,1,,,,,,,,,,,,,,,,,,,,,
,,,,,,,,,,,,,,,,,,,,,,,,,,,,,,,,,,,,,,,,,,,5db43b6a2f45e7000bb7ab5c,5fb5f14e9cf6752068e776d7,2020-11-19_05h15.33.032,Colour_Similarity_Experiment,2020.1.2,Win32,60,5fb5945709dec70f2d595766,,,,,,,,,,,,,,,,,,,,FF,,,,,,,,5,0.929,,,,,,,,,,,,,,,,,,,,,,,,,,,,4,92,-40,1,0,0,response3disk,2,4,-2,1,0,0,rectangle,4,-2,1,0,0,1,3,"[194,66,46,191,122,18,180,70,148,30,165,120,117,196,248,111,12,28,121,190]",4,-2,1,0,0,0,176,13,13,13,1,,,,,,,,,,,,,,,,,,,,,
,,,,,,,,,,,,,,,,,,,,,,,,,,,,,,,,,,,,,,,,,,,5db43b6a2f45e7000bb7ab5c,5fb5f14e9cf6752068e776d7,2020-11-19_05h15.33.032,Colour_Similarity_Experiment,2020.1.2,Win32,60,5fb5945709dec70f2d595766,,,,,,,,,,,,,,,,,,,,PF,,,,,,,,1,0.883,,,,,,,,,,,,,,,,,,,,,,,,,,,,7,-84,34,1,0,0,response7disk,6,4,3,1,0,0,rectangle,4,3,1,0,0,1,4,"[194,66,46,191,122,18,180,70,148,30,165,120,117,196,248,111,12,28,121,190]",4,3,1,0,0,0,177,14,14,29,1,,,,,,,,,,,,,,,,,,,,,
,,,,,,,,,,,,,,,,,,,,,,,,,,,,,,,,,,,,,,,,,,,5db43b6a2f45e7000bb7ab5c,5fb5f14e9cf6752068e776d7,2020-11-19_05h15.33.032,Colour_Similarity_Experiment,2020.1.2,Win32,60,5fb5945709dec70f2d595766,,,,,,,,,,,,,,,,,,,,PF,,,,,,,,3,1.067,,,,,,,,,,,,,,,,,,,,,,,,,,,,7,-45,-76,1,0,0,response5disk,8,16,-2,1,0,0,rectangle,16,-2,1,0,0,1,1,"[194,66,46,191,122,18,180,70,148,30,165,120,117,196,248,111,12,28,121,190]",16,-2,1,0,0,0,178,15,15,140,1,,,,,,,,,,,,,,,,,,,,,
,,,,,,,,,,,,,,,,,,,,,,,,,,,,,,,,,,,,,,,,,,,5db43b6a2f45e7000bb7ab5c,5fb5f14e9cf6752068e776d7,2020-11-19_05h15.33.032,Colour_Similarity_Experiment,2020.1.2,Win32,60,5fb5945709dec70f2d595766,,,,,,,,,,,,,,,,,,,,FF,,,,,,,,0,0.988,,,,,,,,,,,,,,,,,,,,,,,,,,,,2,-53,123,1,0,0,response7disk,2,-17,-4,1,0,0,rectangle,-17,-4,1,0,0,1,2,"[194,66,46,191,122,18,180,70,148,30,165,120,117,196,248,111,12,28,121,190]",-17,-4,1,0,0,0,179,16,16,142,1,,,,,,,,,,,,,,,,,,,,,
,,,,,,,,,,,,,,,,,,,,,,,,,,,,,,,,,,,,,,,,,,,5db43b6a2f45e7000bb7ab5c,5fb5f14e9cf6752068e776d7,2020-11-19_05h15.33.032,Colour_Similarity_Experiment,2020.1.2,Win32,60,5fb5945709dec70f2d595766,,,,,,,,,,,,,,,,,,,,PF,,,,,,,,3,1.484,,,,,,,,,,,,,,,,,,,,,,,,,,,,6,-54,-91,1,0,0,response5disk,9,-24,0,1,0,0,rectangle,-107,38,1,0,0,1,1,"[194,66,46,191,122,18,180,70,148,30,165,120,117,196,248,111,12,28,121,190]",15,-10,1,0,0,0,180,17,17,45,1,response7disk_3,rectangle,,,,,,,,,,,,,,,,,,,
,,,,,,,,,,,,,,,,,,,,,,,,,,,,,,,,,,,,,,,,,,,5db43b6a2f45e7000bb7ab5c,5fb5f14e9cf6752068e776d7,2020-11-19_05h15.33.032,Colour_Similarity_Experiment,2020.1.2,Win32,60,5fb5945709dec70f2d595766,,,,,,,,,,,,,,,,,,,,FF,,,,,,,,2,1.4,,,,,,,,,,,,,,,,,,,,,,,,,,,,9,-101,-39,1,0,0,response5disk,6,2,-14,1,0,0,rectangle,2,-14,1,0,0,1,5,"[194,66,46,191,122,18,180,70,148,30,165,120,117,196,248,111,12,28,121,190]",2,-14,1,0,0,0,181,18,18,117,1,,,,,,,,,,,,,,,,,,,,,
,,,,,,,,,,,,,,,,,,,,,,,,,,,,,,,,,,,,,,,,,,,5db43b6a2f45e7000bb7ab5c,5fb5f14e9cf6752068e776d7,2020-11-19_05h15.33.032,Colour_Similarity_Experiment,2020.1.2,Win32,60,5fb5945709dec70f2d595766,,,,,,,,,,,,,,,,,,,,FF,,,,,,,,4,2.383,,,,,,,,,,,,,,,,,,,,,,,,,,,,3,50,-80,1,0,0,response3disk,7,4,-7,1,0,0,rectangle,4,-7,1,0,0,1,1,"[194,66,46,191,122,18,180,70,148,30,165,120,117,196,248,111,12,28,121,190]",4,-7,1,0,0,0,182,19,19,118,1,,,,,,,,,,,,,,,,,,,,,
,,,,,,,,,,,,,,,,,,,,,,,,,,,,,,,,,,,,,,,,,,,5db43b6a2f45e7000bb7ab5c,5fb5f14e9cf6752068e776d7,2020-11-19_05h15.33.032,Colour_Similarity_Experiment,2020.1.2,Win32,60,5fb5945709dec70f2d595766,,,,,,,,,,,,,,,,,,,,PF,,,,,,,,1,0.817,,,,,,,,,,,,,,,,,,,,,,,,,,,,4,-94,54,1,0,0,response7disk,5,-1,0,1,0,0,rectangle,-1,0,1,0,0,1,4,"[194,66,46,191,122,18,180,70,148,30,165,120,117,196,248,111,12,28,121,190]",-1,0,1,0,0,0,183,20,20,49,1,,,,,,,,,,,,,,,,,,,,,
,,,,,,,,,,,,,,,,,,,,,,,,,,,,,,,,,,,,,,,,,,,5db43b6a2f45e7000bb7ab5c,5fb5f14e9cf6752068e776d7,2020-11-19_05h15.33.032,Colour_Similarity_Experiment,2020.1.2,Win32,60,5fb5945709dec70f2d595766,,,,,,,,,,,,,,,,,,,,FF,,,,,,,,2,1.033,,,,,,,,,,,,,,,,,,,,,,,,,,,,9,-93,-50,1,0,0,response5disk,7,17,-3,1,0,0,rectangle,17,-3,1,0,0,1,6,"[194,66,46,191,122,18,180,70,148,30,165,120,117,196,248,111,12,28,121,190]",17,-3,1,0,0,0,184,21,21,100,1,,,,,,,,,,,,,,,,,,,,,
,,,,,,,,,,,,,,,,,,,,,,,,,,,,,,,,,,,,,,,,,,,5db43b6a2f45e7000bb7ab5c,5fb5f14e9cf6752068e776d7,2020-11-19_05h15.33.032,Colour_Similarity_Experiment,2020.1.2,Win32,60,5fb5945709dec70f2d595766,,,,,,,,,,,,,,,,,,,,PF,,,,,,,,0,0.817,,,,,,,,,,,,,,,,,,,,,,,,,,,,7,-30,132,1,0,0,response7disk,7,-10,2,1,0,0,rectangle,-10,2,1,0,0,1,2,"[194,66,46,191,122,18,180,70,148,30,165,120,117,196,248,111,12,28,121,190]",-10,2,1,0,0,0,185,22,22,51,1,,,,,,,,,,,,,,,,,,,,,
,,,,,,,,,,,,,,,,,,,,,,,,,,,,,,,,,,,,,,,,,,,5db43b6a2f45e7000bb7ab5c,5fb5f14e9cf6752068e776d7,2020-11-19_05h15.33.032,Colour_Similarity_Experiment,2020.1.2,Win32,60,5fb5945709dec70f2d595766,,,,,,,,,,,,,,,,,,,,FF,,,,,,,,1,3.517,,,,,,,,,,,,,,,,,,,,,,,,,,,,5,-137,52,1,0,0,response7disk,6,5,5,1,0,0,rectangle,5,5,1,0,0,1,4,"[194,66,46,191,122,18,180,70,148,30,165,120,117,196,248,111,12,28,121,190]",5,5,1,0,0,0,186,23,23,12,1,,,,,,,,,,,,,,,,,,,,,
,,,,,,,,,,,,,,,,,,,,,,,,,,,,,,,,,,,,,,,,,,,5db43b6a2f45e7000bb7ab5c,5fb5f14e9cf6752068e776d7,2020-11-19_05h15.33.032,Colour_Similarity_Experiment,2020.1.2,Win32,60,5fb5945709dec70f2d595766,,,,,,,,,,,,,,,,,,,,PF,,,,,,,,4,1.4,,,,,,,,,,,,,,,,,,,,,,,,,,,,5,23,-64,1,0,0,response3disk,8,-14,-12,1,0,0,rectangle,-14,-12,1,0,0,1,5,"[194,66,46,191,122,18,180,70,148,30,165,120,117,196,248,111,12,28,121,190]",-14,-12,1,0,0,0,187,24,24,149,1,,,,,,,,,,,,,,,,,,,,,
,,,,,,,,,,,,,,,,,,,,,,,,,,,,,,,,,,,,,,,,,,,5db43b6a2f45e7000bb7ab5c,5fb5f14e9cf6752068e776d7,2020-11-19_05h15.33.032,Colour_Similarity_Experiment,2020.1.2,Win32,60,5fb5945709dec70f2d595766,,,,,,,,,,,,,,,,,,,,PF,,,,,,,,6,1.299,,,,,,,,,,,,,,,,,,,,,,,,,,,,2,122,31,1,0,0,response1disk,7,44,-12,1,0,0,rectangle,44,-12,1,0,0,1,3,"[194,66,46,191,122,18,180,70,148,30,165,120,117,196,248,111,12,28,121,190]",44,-12,1,0,0,0,188,25,25,107,1,,,,,,,,,,,,,,,,,,,,,
,,,,,,,,,,,,,,,,,,,,,,,,,,,,,,,,,,,,,,,,,,,5db43b6a2f45e7000bb7ab5c,5fb5f14e9cf6752068e776d7,2020-11-19_05h15.33.032,Colour_Similarity_Experiment,2020.1.2,Win32,60,5fb5945709dec70f2d595766,,,,,,,,,,,,,,,,,,,,FF,,,,,,,,0,0.683,,,,,,,,,,,,,,,,,,,,,,,,,,,,1,-57,83,1,0,0,response7disk,1,-24,6,1,0,0,rectangle,-24,6,1,0,0,1,6,"[194,66,46,191,122,18,180,70,148,30,165,120,117,196,248,111,12,28,121,190]",-24,6,1,0,0,0,189,26,26,151,1,,,,,,,,,,,,,,,,,,,,,
,,,,,,,,,,,,,,,,,,,,,,,,,,,,,,,,,,,,,,,,,,,5db43b6a2f45e7000bb7ab5c,5fb5f14e9cf6752068e776d7,2020-11-19_05h15.33.032,Colour_Similarity_Experiment,2020.1.2,Win32,60,5fb5945709dec70f2d595766,,,,,,,,,,,,,,,,,,,,PF,,,,,,,,5,4.301,,,,,,,,,,,,,,,,,,,,,,,,,,,,8,90,-43,1,0,0,response3disk,4,-41,13,1,0,0,rectangle,-29,-106,1,0,0,3,3,"[194,66,46,191,122,18,180,70,148,30,165,120,117,196,248,111,12,28,121,190]",-13,-6,1,0,0,0,190,27,27,78,1,response5disk_3,rectangle,,,,,,,,,,,,,,,,,,,
,,,,,,,,,,,,,,,,,,,,,,,,,,,,,,,,,,,,,,,,,,,5db43b6a2f45e7000bb7ab5c,5fb5f14e9cf6752068e776d7,2020-11-19_05h15.33.032,Colour_Similarity_Experiment,2020.1.2,Win32,60,5fb5945709dec70f2d595766,,,,,,,,,,,,,,,,,,,,FF,,,,,,,,5,1.17,,,,,,,,,,,,,,,,,,,,,,,,,,,,6,77,-56,1,0,0,response3disk,4,7,-19,1,0,0,rectangle,42,115,1,0,0,7,7,"[194,66,46,191,122,18,180,70,148,30,165,120,117,196,248,111,12,28,121,190]",36,7,1,0,0,0,191,28,28,56,1,response1disk_3,rectangle,,,,,,,,,,,,,,,,,,,
,,,,,,,,,,,,,,,,,,,,,,,,,,,,,,,,,,,,,,,,,,,5db43b6a2f45e7000bb7ab5c,5fb5f14e9cf6752068e776d7,2020-11-19_05h15.33.032,Colour_Similarity_Experiment,2020.1.2,Win32,60,5fb5945709dec70f2d595766,,,,,,,,,,,,,,,,,,,,PF,,,,,,,,1,1.467,,,,,,,,,,,,,,,,,,,,,,,,,,,,6,-97,50,1,0,0,response7disk,3,41,-7,1,0,0,rectangle,41,-7,1,0,0,7,4,"[194,66,46,191,122,18,180,70,148,30,165,120,117,196,248,111,12,28,121,190]",41,-7,1,0,0,0,192,29,29,26,1,,,,,,,,,,,,,,,,,,,,,
,,,,,,,,,,,,,,,,,,,,,,,,,,,,,,,,,,,,,,,,,,,5db43b6a2f45e7000bb7ab5c,5fb5f14e9cf6752068e776d7,2020-11-19_05h15.33.032,Colour_Similarity_Experiment,2020.1.2,Win32,60,5fb5945709dec70f2d595766,,,,,,,,,,,,,,,,,,,,PF,,,,,,,,5,1.117,,,,,,,,,,,,,,,,,,,,,,,,,,,,4,122,-59,1,0,0,response3disk,8,28,12,1,0,0,rectangle,28,12,1,0,0,7,6,"[194,66,46,191,122,18,180,70,148,30,165,120,117,196,248,111,12,28,121,190]",28,12,1,0,0,0,193,30,30,124,1,,,,,,,,,,,,,,,,,,,,,
,,,,,,,,,,,,,,,,,,,,,,,,,,,,,,,,,,,,,,,,,,,5db43b6a2f45e7000bb7ab5c,5fb5f14e9cf6752068e776d7,2020-11-19_05h15.33.032,Colour_Similarity_Experiment,2020.1.2,Win32,60,5fb5945709dec70f2d595766,,,,,,,,,,,,,,,,,,,,FF,,,,,,,,1,0.817,,,,,,,,,,,,,,,,,,,,,,,,,,,,7,-91,37,1,0,0,response7disk,6,-17,-1,1,0,0,rectangle,-77,40,1,0,0,1,1,"[194,66,46,191,122,18,180,70,148,30,165,120,117,196,248,111,12,28,121,190]",-8,-18,1,0,0,0,194,31,31,31,1,response7disk_3,rectangle,,,,,,,,,,,,,,,,,,,
,,,,,,,,,,,,,,,,,,,,,,,,,,,,,,,,,,,,,,,,,,,5db43b6a2f45e7000bb7ab5c,5fb5f14e9cf6752068e776d7,2020-11-19_05h15.33.032,Colour_Similarity_Experiment,2020.1.2,Win32,60,5fb5945709dec70f2d595766,,,,,,,,,,,,,,,,,,,,FF,,,,,,,,6,0.933,,,,,,,,,,,,,,,,,,,,,,,,,,,,2,113,61,1,0,0,response1disk,6,26,12,1,0,0,rectangle,26,12,1,0,0,1,3,"[194,66,46,191,122,18,180,70,148,30,165,120,117,196,248,111,12,28,121,190]",26,12,1,0,0,0,195,32,32,40,1,,,,,,,,,,,,,,,,,,,,,
,,,,,,,,,,,,,,,,,,,,,,,,,,,,,,,,,,,,,,,,,,,5db43b6a2f45e7000bb7ab5c,5fb5f14e9cf6752068e776d7,2020-11-19_05h15.33.032,Colour_Similarity_Experiment,2020.1.2,Win32,60,5fb5945709dec70f2d595766,,,,,,,,,,,,,,,,,,,,FF,,,,,,,,2,1.284,,,,,,,,,,,,,,,,,,,,,,,,,,,,6,-103,-57,1,0,0,response5disk,3,-20,-2,1,0,0,rectangle,-113,-43,1,0,0,1,2,"[194,66,46,191,122,18,180,70,148,30,165,120,117,196,248,111,12,28,121,190]",11,0,1,0,0,0,196,33,33,21,1,response5disk_3,rectangle,,,,,,,,,,,,,,,,,,,
,,,,,,,,,,,,,,,,,,,,,,,,,,,,,,,,,,,,,,,,,,,5db43b6a2f45e7000bb7ab5c,5fb5f14e9cf6752068e776d7,2020-11-19_05h15.33.032,Colour_Similarity_Experiment,2020.1.2,Win32,60,5fb5945709dec70f2d595766,,,,,,,,,,,,,,,,,,,,FF,,,,,,,,6,1.505,,,,,,,,,,,,,,,,,,,,,,,,,,,,6,78,28,1,0,0,response1disk,2,-23,-10,1,0,0,rectangle,-23,-10,1,0,0,1,5,"[194,66,46,191,122,18,180,70,148,30,165,120,117,196,248,111,12,28,121,190]",-23,-10,1,0,0,0,197,34,34,112,1,,,,,,,,,,,,,,,,,,,,,
,,,,,,,,,,,,,,,,,,,,,,,,,,,,,,,,,,,,,,,,,,,5db43b6a2f45e7000bb7ab5c,5fb5f14e9cf6752068e776d7,2020-11-19_05h15.33.032,Colour_Similarity_Experiment,2020.1.2,Win32,60,5fb5945709dec70f2d595766,,,,,,,,,,,,,,,,,,,,PF,,,,,,,,6,3.586,,,,,,,,,,,,,,,,,,,,,,,,,,,,7,93,47,1,0,0,response1disk,2,-12,5,1,0,0,rectangle,-12,5,1,0,0,1,7,"[194,66,46,191,122,18,180,70,148,30,165,120,117,196,248,111,12,28,121,190]",-12,5,1,0,0,0,198,35,35,32,1,,,,,,,,,,,,,,,,,,,,,
,,,,,,,,,,,,,,,,,,,,,,,,,,,,,,,,,,,,,,,,,,,5db43b6a2f45e7000bb7ab5c,5fb5f14e9cf6752068e776d7,2020-11-19_05h15.33.032,Colour_Similarity_Experiment,2020.1.2,Win32,60,5fb5945709dec70f2d595766,,,,,,,,,,,,,,,,,,,,FF,,,,,,,,7,0.933,,,,,,,,,,,,,,,,,,,,,,,,,,,,9,57,88,1,0,0,response1disk,4,1,-1,1,0,0,rectangle,1,-1,1,0,0,1,5,"[194,66,46,191,122,18,180,70,148,30,165,120,117,196,248,111,12,28,121,190]",1,-1,1,0,0,0,199,36,36,60,1,,,,,,,,,,,,,,,,,,,,,
,,,,,,,,,,,,,,,,,,,,,,,,,,,,,,,,,,,,,,,,,,,5db43b6a2f45e7000bb7ab5c,5fb5f14e9cf6752068e776d7,2020-11-19_05h15.33.032,Colour_Similarity_Experiment,2020.1.2,Win32,60,5fb5945709dec70f2d595766,,,,,,,,,,,,,,,,,,,,PF,,,,,,,,6,1.221,,,,,,,,,,,,,,,,,,,,,,,,,,,,2,98,41,1,0,0,response1disk,8,23,1,1,0,0,rectangle,23,1,1,0,0,1,6,"[194,66,46,191,122,18,180,70,148,30,165,120,117,196,248,111,12,28,121,190]",23,1,1,0,0,0,200,37,37,52,1,,,,,,,,,,,,,,,,,,,,,
,,,,,,,,,,,,,,,,,,,,,,,,,,,,,,,,,,,,,,,,,,,5db43b6a2f45e7000bb7ab5c,5fb5f14e9cf6752068e776d7,2020-11-19_05h15.33.032,Colour_Similarity_Experiment,2020.1.2,Win32,60,5fb5945709dec70f2d595766,,,,,,,,,,,,,,,,,,,,PF,,,,,,,,1,1.233,,,,,,,,,,,,,,,,,,,,,,,,,,,,9,-124,41,1,0,0,response7disk,1,-29,13,1,0,0,rectangle,-29,13,1,0,0,1,2,"[194,66,46,191,122,18,180,70,148,30,165,120,117,196,248,111,12,28,121,190]",-29,13,1,0,0,0,201,38,38,74,1,,,,,,,,,,,,,,,,,,,,,
,,,,,,,,,,,,,,,,,,,,,,,,,,,,,,,,,,,,,,,,,,,5db43b6a2f45e7000bb7ab5c,5fb5f14e9cf6752068e776d7,2020-11-19_05h15.33.032,Colour_Similarity_Experiment,2020.1.2,Win32,60,5fb5945709dec70f2d595766,,,,,,,,,,,,,,,,,,,,PF,,,,,,,,7,1.117,,,,,,,,,,,,,,,,,,,,,,,,,,,,4,50,80,1,0,0,response1disk,9,1,5,1,0,0,rectangle,1,5,1,0,0,1,5,"[194,66,46,191,122,18,180,70,148,30,165,120,117,196,248,111,12,28,121,190]",1,5,1,0,0,0,202,39,39,75,1,,,,,,,,,,,,,,,,,,,,,
,,,,,,,,,,,,,,,,,,,,,,,,,,,,,,,,,,,,,,,,,,,5db43b6a2f45e7000bb7ab5c,5fb5f14e9cf6752068e776d7,2020-11-19_05h15.33.032,Colour_Similarity_Experiment,2020.1.2,Win32,60,5fb5945709dec70f2d595766,,,,,,,,,,,,,,,,,,,,PF,,,,,,,,7,0.933,,,,,,,,,,,,,,,,,,,,,,,,,,,,3,76,81,1,0,0,response1disk,8,-3,-8,1,0,0,rectangle,-3,-8,1,0,0,1,5,"[194,66,46,191,122,18,180,70,148,30,165,120,117,196,248,111,12,28,121,190]",-3,-8,1,0,0,0,203,40,40,3,1,,,,,,,,,,,,,,,,,,,,,
,,,,,,,,,,,,,,,,,,,,,,,,,,,,,,,,,,,,,,,,,,,5db43b6a2f45e7000bb7ab5c,5fb5f14e9cf6752068e776d7,2020-11-19_05h15.33.032,Colour_Similarity_Experiment,2020.1.2,Win32,60,5fb5945709dec70f2d595766,,,,,,,,,,,,,,,,,,,,PF,,,,,,,,6,1.167,,,,,,,,,,,,,,,,,,,,,,,,,,,,6,98,42,1,0,0,response1disk,2,29,8,1,0,0,rectangle,29,8,1,0,0,1,4,"[194,66,46,191,122,18,180,70,148,30,165,120,117,196,248,111,12,28,121,190]",29,8,1,0,0,0,204,41,41,130,1,,,,,,,,,,,,,,,,,,,,,
,,,,,,,,,,,,,,,,,,,,,,,,,,,,,,,,,,,,,,,,,,,5db43b6a2f45e7000bb7ab5c,5fb5f14e9cf6752068e776d7,2020-11-19_05h15.33.032,Colour_Similarity_Experiment,2020.1.2,Win32,60,5fb5945709dec70f2d595766,,,,,,,,,,,,,,,,,,,,PF,,,,,,,,2,1.234,,,,,,,,,,,,,,,,,,,,,,,,,,,,5,-135,-57,1,0,0,response5disk,3,-1,14,1,0,0,rectangle,-1,14,1,0,0,1,3,"[194,66,46,191,122,18,180,70,148,30,165,120,117,196,248,111,12,28,121,190]",-1,14,1,0,0,0,205,42,42,109,1,,,,,,,,,,,,,,,,,,,,,
