key_resp.keys,key_resp.rt,key_resp_16.keys,key_resp_16.rt,key_resp_2.keys,key_resp_2.rt,X Scale,ratio_pxpermm,screen_size_x,screen_size_y,testsize,key_resp_3.keys,key_resp_3.rt,key_resp_4.keys,key_resp_4.rt,line_size,key_resp_5.keys,key_resp_5.rt,key_resp_6.keys,key_resp_6.rt,key_resp_8.keys,key_resp_8.rt,key_resp_7.keys,key_resp_7.rt,key_resp_12.keys,key_resp_12.rt,key_resp_11.keys,key_resp_11.rt,key_resp_18.keys,key_resp_18.rt,key_resp_21.keys,key_resp_21.rt,key_resp_13.keys,key_resp_13.rt,key_resp_19.keys,key_resp_19.rt,ballposx,viewer_distance,trials.thisRepN,trials.thisTrialN,trials.thisN,trials.thisIndex,trials.ran,participant,session,date,expName,psychopyVersion,OS,frameRate,study_id,viewerdistancecm,DVA_to_distance,radius_F,radius_P,r_F,R_P,key_resp_20.keys,key_resp_20.rt,key_resp_14.keys,key_resp_14.rt,key_resp_15.keys,key_resp_15.rt,key_resp_17.keys,key_resp_17.rt,key_resp_9.keys,key_resp_9.rt,key_resp_10.keys,key_resp_10.rt,Colour_1,Ecc,mouse_5.x,mouse_5.y,mouse_5.leftButton,mouse_5.midButton,mouse_5.rightButton,mouse_5.clicked_name,Colour_2,similarity,response_time,mouse_10.x,mouse_10.y,mouse_10.leftButton,mouse_10.midButton,mouse_10.rightButton,mouse_10.clicked_name,mouse_7.x,mouse_7.y,mouse_7.leftButton,mouse_7.midButton,mouse_7.rightButton,catchnumberprac,mouse_6.x,mouse_6.y,mouse_6.leftButton,mouse_6.midButton,mouse_6.rightButton,duringprac.thisRepN,duringprac.thisTrialN,duringprac.thisN,duringprac.thisIndex,duringprac.ran,mouse_7.clicked_name,catchprac,mouse_6.clicked_name,key_resp_22.keys,key_resp_22.rt,Colour1,mouse.x,mouse.y,mouse.leftButton,mouse.midButton,mouse.rightButton,mouse.clicked_name,Colour2,mouse_2.x,mouse_2.y,mouse_2.leftButton,mouse_2.midButton,mouse_2.rightButton,mouse_2.clicked_name,mouse_3.x,mouse_3.y,mouse_3.leftButton,mouse_3.midButton,mouse_3.rightButton,catchresponse,catchnumber,catchtrialorder,mouse_11.x,mouse_11.y,mouse_11.leftButton,mouse_11.midButton,mouse_11.rightButton,trials_2.thisRepN,trialnumber,trials_2.thisTrialN,trials_2.thisN,trials_2.thisIndex,trials_2.ran,mouse_3.clicked_name,mouse_11.clicked_name,trials_3.thisRepN,trials_3.thisTrialN,trials_3.thisN,trials_3.thisIndex,trials_3.ran,answer1,rt1,answer2,rt2,answer3,rt3,answer4,rt4,answer5,rt5,answer6,rt6,answer7,rt7
space,3.658965,space,12.154385,space,8.128115,44.2,4.42,309.0497738,173.7556561,1366,space,32.77413,space,16.286495,88.4,space,7.614625,space,10.05002,space,1.62767,space,6.21572,space,8.34361,space,21.65155,space,11.3152,space,2.00068,space,16.464685,return,54.75578,-727.395,1200.393663,0,0,0,0,1,5ea5a65ce9c797598273b3ba,5fb5d9861124261d7ebf718c,2020-11-19_04h34.10.630,Colour_Similarity_Experiment,2020.1.2,Win32,60,5fb5945709dec70f2d595766,,,,,,,,,,,,,,,,,,,,,,,,,,,,,,,,,,,,,,,,,,,,,,,,,,,,,,,,,,,,,,,,,,,,,,,,,,,,,,,,,,,,,,,,,,,,,,,,,,,,,,,,,,,,,,
,,,,,,,,,,,,,,,,,,,,,,,,,,,,,,,,,,return,30.06538,-237.684,738.9018364,1,0,1,0,1,5ea5a65ce9c797598273b3ba,5fb5d9861124261d7ebf718c,2020-11-19_04h34.10.630,Colour_Similarity_Experiment,2020.1.2,Win32,60,5fb5945709dec70f2d595766,,,,,,,,,,,,,,,,,,,,,,,,,,,,,,,,,,,,,,,,,,,,,,,,,,,,,,,,,,,,,,,,,,,,,,,,,,,,,,,,,,,,,,,,,,,,,,,,,,,,,,,,,,,,,,
,,,,,,,,,,,,,,,,,,,,,,,,,,,,,,,,,,return,36.111515,-243.831,744.6946209,2,0,2,0,1,5ea5a65ce9c797598273b3ba,5fb5d9861124261d7ebf718c,2020-11-19_04h34.10.630,Colour_Similarity_Experiment,2020.1.2,Win32,60,5fb5945709dec70f2d595766,,,,,,,,,,,,,,,,,,,,,,,,,,,,,,,,,,,,,,,,,,,,,,,,,,,,,,,,,,,,,,,,,,,,,,,,,,,,,,,,,,,,,,,,,,,,,,,,,,,,,,,,,,,,,,
,,,,,,,,,,,,,,,,,,,,,,,,,,,,,,,,,,return,28.770055,-233.586,735.0399802,3,0,3,0,1,5ea5a65ce9c797598273b3ba,5fb5d9861124261d7ebf718c,2020-11-19_04h34.10.630,Colour_Similarity_Experiment,2020.1.2,Win32,60,5fb5945709dec70f2d595766,,,,,,,,,,,,,,,,,,,,,,,,,,,,,,,,,,,,,,,,,,,,,,,,,,,,,,,,,,,,,,,,,,,,,,,,,,,,,,,,,,,,,,,,,,,,,,,,,,,,,,,,,,,,,,
,,,,,,,,,,,,,,,,,,,,,,,,,,,,,,,,,,return,26.516745,-249.978,750.4874053,4,0,4,0,1,5ea5a65ce9c797598273b3ba,5fb5d9861124261d7ebf718c,2020-11-19_04h34.10.630,Colour_Similarity_Experiment,2020.1.2,Win32,60,5fb5945709dec70f2d595766,,,,,,,,,,,,,,,,,,,,,,,,,,,,,,,,,,,,,,,,,,,,,,,,,,,,,,,,,,,,,,,,,,,,,,,,,,,,,,,,,,,,,,,,,,,,,,,,,,,,,,,,,,,,,,
,,,,,,,,,,,,,,,,,,,,,,,,,,,,,,,,,,,,,,,,,,,5ea5a65ce9c797598273b3ba,5fb5d9861124261d7ebf718c,2020-11-19_04h34.10.630,Colour_Similarity_Experiment,2020.1.2,Win32,60,5fb5945709dec70f2d595766,83,14.48769871,96.05344244,640.3562829,64.03562829,288.1603273,space,7.09795,space,15.585325,space,22.616655,space,5.74966,space,5.997045,space,7.724,4,FF,-42,69,1,0,0,response7disk_5,9,0,15.43232,-4,1,1,0,0,rectangle_8,-4,1,1,0,0,0,-4,1,1,0,0,0,0,0,0,1,,,,,,,,,,,,,,,,,,,,,,,,,,,,,,,,,,,,,,,,,,,,,,,,,,,,,,,,,,,
,,,,,,,,,,,,,,,,,,,,,,,,,,,,,,,,,,,,,,,,,,,5ea5a65ce9c797598273b3ba,5fb5d9861124261d7ebf718c,2020-11-19_04h34.10.630,Colour_Similarity_Experiment,2020.1.2,Win32,60,5fb5945709dec70f2d595766,,,,,,,,,,,,,,,,,,,8,PF,68,54,1,0,0,response1disk_5,8,6,22.375855,-3,3,1,0,0,rectangle_8,-33,96,1,0,0,0,0,4,1,0,0,0,1,1,1,1,response7disk_7,0,rectangle_4,,,,,,,,,,,,,,,,,,,,,,,,,,,,,,,,,,,,,,,,,,,,,,,,,,,,,,,,
,,,,,,,,,,,,,,,,,,,,,,,,,,,,,,,,,,,,,,,,,,,5ea5a65ce9c797598273b3ba,5fb5d9861124261d7ebf718c,2020-11-19_04h34.10.630,Colour_Similarity_Experiment,2020.1.2,Win32,60,5fb5945709dec70f2d595766,,,,,,,,,,,,,,,,,,,8,PF,41,-89,1,0,0,response3disk_5,9,4,5.874915,-2,1,1,0,0,rectangle_8,-2,1,1,0,0,0,-2,1,1,0,0,0,2,2,6,1,,,,,,,,,,,,,,,,,,,,,,,,,,,,,,,,,,,,,,,,,,,,,,,,,,,,,,,,,,,
,,,,,,,,,,,,,,,,,,,,,,,,,,,,,,,,,,,,,,,,,,,5ea5a65ce9c797598273b3ba,5fb5d9861124261d7ebf718c,2020-11-19_04h34.10.630,Colour_Similarity_Experiment,2020.1.2,Win32,60,5fb5945709dec70f2d595766,,,,,,,,,,,,,,,,,,,2,FF,84,-46,1,0,0,response3disk_5,4,5,25.87567,0,3,1,0,0,rectangle_8,0,3,1,0,0,0,0,3,1,0,0,0,3,3,5,1,,,,,,,,,,,,,,,,,,,,,,,,,,,,,,,,,,,,,,,,,,,,,,,,,,,,,,,,,,,
,,,,,,,,,,,,,,,,,,,,,,,,,,,,,,,,,,,,,,,,,,,5ea5a65ce9c797598273b3ba,5fb5d9861124261d7ebf718c,2020-11-19_04h34.10.630,Colour_Similarity_Experiment,2020.1.2,Win32,60,5fb5945709dec70f2d595766,,,,,,,,,,,,,,,,,,,2,PF,-74,-31,1,0,0,response5disk_5,4,2,16.019735,-19,-2,1,0,0,rectangle_8,-19,-2,1,0,0,0,-19,-2,1,0,0,0,4,4,2,1,,,,,,,,,,,,,,,,,,,,,,,,,,,,,,,,,,,,,,,,,,,,,,,,,,,,,,,,,,,
,,,,,,,,,,,,,,,,,,,,,,,,,,,,,,,,,,,,,,,,,,,5ea5a65ce9c797598273b3ba,5fb5d9861124261d7ebf718c,2020-11-19_04h34.10.630,Colour_Similarity_Experiment,2020.1.2,Win32,60,5fb5945709dec70f2d595766,,,,,,,,,,,,,,,,,,,9,PF,-38,88,1,0,0,response7disk_5,9,0,11.671965,-17,5,1,0,0,rectangle_8,-17,5,1,0,0,0,-17,5,1,0,0,0,5,5,4,1,,,,,,,,,,,,,,,,,,,,,,,,,,,,,,,,,,,,,,,,,,,,,,,,,,,,,,,,,,,
,,,,,,,,,,,,,,,,,,,,,,,,,,,,,,,,,,,,,,,,,,,5ea5a65ce9c797598273b3ba,5fb5d9861124261d7ebf718c,2020-11-19_04h34.10.630,Colour_Similarity_Experiment,2020.1.2,Win32,60,5fb5945709dec70f2d595766,,,,,,,,,,,,,,,,,,,7,FF,92,36,1,0,0,response1disk_5,1,6,4.165705,-2,2,1,0,0,rectangle_8,-2,2,1,0,0,0,-2,2,1,0,0,0,6,6,3,1,,,,,,,,,,,,,,,,,,,,,,,,,,,,,,,,,,,,,,,,,,,,,,,,,,,,,,,,,,,
,,,,,,,,,,,,,,,,,,,,,,,,,,,,,,,,,,,,,,,,,,,5ea5a65ce9c797598273b3ba,5fb5d9861124261d7ebf718c,2020-11-19_04h34.10.630,Colour_Similarity_Experiment,2020.1.2,Win32,60,5fb5945709dec70f2d595766,,,,,,,,,,,,,,,,,,,,FF,,,,,,,,0,3.712235,,,,,,,,,,,,,,,,,,,,,,,,,,space,5.517855,4,-47,83,1,0,0,response7disk,4,-5,7,1,0,0,rectangle,-5,7,1,0,0,,6,"[302,56,222,221,51,170,283,265,149,166,37,31,111,6,317,91,222,200,321,278]",-5,7,1,0,0,0,1,0,0,84,1,,,,,,,,,,,,,,,,,,,,,
,,,,,,,,,,,,,,,,,,,,,,,,,,,,,,,,,,,,,,,,,,,5ea5a65ce9c797598273b3ba,5fb5d9861124261d7ebf718c,2020-11-19_04h34.10.630,Colour_Similarity_Experiment,2020.1.2,Win32,60,5fb5945709dec70f2d595766,,,,,,,,,,,,,,,,,,,,PF,,,,,,,,4,11.31122,,,,,,,,,,,,,,,,,,,,,,,,,,,,9,46,-67,1,0,0,response3disk,1,-8,-3,1,0,0,rectangle,-8,-3,1,0,0,,5,"[302,56,222,221,51,170,283,265,149,166,37,31,111,6,317,91,222,200,321,278]",-8,-3,1,0,0,0,2,1,1,74,1,,,,,,,,,,,,,,,,,,,,,
,,,,,,,,,,,,,,,,,,,,,,,,,,,,,,,,,,,,,,,,,,,5ea5a65ce9c797598273b3ba,5fb5d9861124261d7ebf718c,2020-11-19_04h34.10.630,Colour_Similarity_Experiment,2020.1.2,Win32,60,5fb5945709dec70f2d595766,,,,,,,,,,,,,,,,,,,,FF,,,,,,,,3,10.684475,,,,,,,,,,,,,,,,,,,,,,,,,,,,5,-55,-76,1,0,0,response5disk,4,-10,2,1,0,0,rectangle,-10,2,1,0,0,,7,"[302,56,222,221,51,170,283,265,149,166,37,31,111,6,317,91,222,200,321,278]",-10,2,1,0,0,0,3,2,2,8,1,,,,,,,,,,,,,,,,,,,,,
,,,,,,,,,,,,,,,,,,,,,,,,,,,,,,,,,,,,,,,,,,,5ea5a65ce9c797598273b3ba,5fb5d9861124261d7ebf718c,2020-11-19_04h34.10.630,Colour_Similarity_Experiment,2020.1.2,Win32,60,5fb5945709dec70f2d595766,,,,,,,,,,,,,,,,,,,,FF,,,,,,,,5,6.92536,,,,,,,,,,,,,,,,,,,,,,,,,,,,2,86,-27,1,0,0,response3disk,4,6,-3,1,0,0,rectangle,6,-3,1,0,0,,1,"[302,56,222,221,51,170,283,265,149,166,37,31,111,6,317,91,222,200,321,278]",6,-3,1,0,0,0,4,3,3,145,1,,,,,,,,,,,,,,,,,,,,,
,,,,,,,,,,,,,,,,,,,,,,,,,,,,,,,,,,,,,,,,,,,5ea5a65ce9c797598273b3ba,5fb5d9861124261d7ebf718c,2020-11-19_04h34.10.630,Colour_Similarity_Experiment,2020.1.2,Win32,60,5fb5945709dec70f2d595766,,,,,,,,,,,,,,,,,,,,FF,,,,,,,,4,3.01429,,,,,,,,,,,,,,,,,,,,,,,,,,,,8,49,-81,1,0,0,response3disk,5,7,1,1,0,0,rectangle,7,1,1,0,0,,5,"[302,56,222,221,51,170,283,265,149,166,37,31,111,6,317,91,222,200,321,278]",7,1,1,0,0,0,5,4,4,152,1,,,,,,,,,,,,,,,,,,,,,
,,,,,,,,,,,,,,,,,,,,,,,,,,,,,,,,,,,,,,,,,,,5ea5a65ce9c797598273b3ba,5fb5d9861124261d7ebf718c,2020-11-19_04h34.10.630,Colour_Similarity_Experiment,2020.1.2,Win32,60,5fb5945709dec70f2d595766,,,,,,,,,,,,,,,,,,,,PF,,,,,,,,1,2.42865,,,,,,,,,,,,,,,,,,,,,,,,,,,,9,-86,34,1,0,0,response7disk,9,-1,0,1,0,0,rectangle,32,83,1,0,0,7,7,"[302,56,222,221,51,170,283,265,149,166,37,31,111,6,317,91,222,200,321,278]",-5,1,1,0,0,0,6,5,5,106,1,response1disk_3,rectangle,,,,,,,,,,,,,,,,,,,
,,,,,,,,,,,,,,,,,,,,,,,,,,,,,,,,,,,,,,,,,,,5ea5a65ce9c797598273b3ba,5fb5d9861124261d7ebf718c,2020-11-19_04h34.10.630,Colour_Similarity_Experiment,2020.1.2,Win32,60,5fb5945709dec70f2d595766,,,,,,,,,,,,,,,,,,,,FF,,,,,,,,6,10.698975,,,,,,,,,,,,,,,,,,,,,,,,,,,,8,97,28,1,0,0,response1disk,6,-1,-3,1,0,0,rectangle,-1,-3,1,0,0,7,7,"[302,56,222,221,51,170,283,265,149,166,37,31,111,6,317,91,222,200,321,278]",-1,-3,1,0,0,0,7,6,6,37,1,,,,,,,,,,,,,,,,,,,,,
,,,,,,,,,,,,,,,,,,,,,,,,,,,,,,,,,,,,,,,,,,,5ea5a65ce9c797598273b3ba,5fb5d9861124261d7ebf718c,2020-11-19_04h34.10.630,Colour_Similarity_Experiment,2020.1.2,Win32,60,5fb5945709dec70f2d595766,,,,,,,,,,,,,,,,,,,,PF,,,,,,,,2,3.22,,,,,,,,,,,,,,,,,,,,,,,,,,,,4,-69,-28,1,0,0,response5disk,5,0,3,1,0,0,rectangle,0,3,1,0,0,7,7,"[302,56,222,221,51,170,283,265,149,166,37,31,111,6,317,91,222,200,321,278]",0,3,1,0,0,0,8,7,7,49,1,,,,,,,,,,,,,,,,,,,,,
,,,,,,,,,,,,,,,,,,,,,,,,,,,,,,,,,,,,,,,,,,,5ea5a65ce9c797598273b3ba,5fb5d9861124261d7ebf718c,2020-11-19_04h34.10.630,Colour_Similarity_Experiment,2020.1.2,Win32,60,5fb5945709dec70f2d595766,,,,,,,,,,,,,,,,,,,,PF,,,,,,,,6,5.27307,,,,,,,,,,,,,,,,,,,,,,,,,,,,9,68,25,1,0,0,response1disk,3,6,3,1,0,0,rectangle,6,3,1,0,0,7,0,"[302,56,222,221,51,170,283,265,149,166,37,31,111,6,317,91,222,200,321,278]",6,3,1,0,0,0,9,8,8,119,1,,,,,,,,,,,,,,,,,,,,,
,,,,,,,,,,,,,,,,,,,,,,,,,,,,,,,,,,,,,,,,,,,5ea5a65ce9c797598273b3ba,5fb5d9861124261d7ebf718c,2020-11-19_04h34.10.630,Colour_Similarity_Experiment,2020.1.2,Win32,60,5fb5945709dec70f2d595766,,,,,,,,,,,,,,,,,,,,PF,,,,,,,,6,2.97972,,,,,,,,,,,,,,,,,,,,,,,,,,,,2,71,30,1,0,0,response1disk,8,-8,1,1,0,0,rectangle,-8,1,1,0,0,7,1,"[302,56,222,221,51,170,283,265,149,166,37,31,111,6,317,91,222,200,321,278]",-8,1,1,0,0,0,10,9,9,52,1,,,,,,,,,,,,,,,,,,,,,
,,,,,,,,,,,,,,,,,,,,,,,,,,,,,,,,,,,,,,,,,,,5ea5a65ce9c797598273b3ba,5fb5d9861124261d7ebf718c,2020-11-19_04h34.10.630,Colour_Similarity_Experiment,2020.1.2,Win32,60,5fb5945709dec70f2d595766,,,,,,,,,,,,,,,,,,,,PF,,,,,,,,1,3.037515,,,,,,,,,,,,,,,,,,,,,,,,,,,,2,-75,44,1,0,0,response7disk,2,2,6,1,0,0,rectangle,2,6,1,0,0,7,2,"[302,56,222,221,51,170,283,265,149,166,37,31,111,6,317,91,222,200,321,278]",2,6,1,0,0,0,11,10,10,14,1,,,,,,,,,,,,,,,,,,,,,
,,,,,,,,,,,,,,,,,,,,,,,,,,,,,,,,,,,,,,,,,,,5ea5a65ce9c797598273b3ba,5fb5d9861124261d7ebf718c,2020-11-19_04h34.10.630,Colour_Similarity_Experiment,2020.1.2,Win32,60,5fb5945709dec70f2d595766,,,,,,,,,,,,,,,,,,,,FF,,,,,,,,7,2.194255,,,,,,,,,,,,,,,,,,,,,,,,,,,,9,41,63,1,0,0,response1disk,7,-4,9,1,0,0,rectangle,-4,9,1,0,0,7,2,"[302,56,222,221,51,170,283,265,149,166,37,31,111,6,317,91,222,200,321,278]",-4,9,1,0,0,0,12,11,11,100,1,,,,,,,,,,,,,,,,,,,,,
,,,,,,,,,,,,,,,,,,,,,,,,,,,,,,,,,,,,,,,,,,,5ea5a65ce9c797598273b3ba,5fb5d9861124261d7ebf718c,2020-11-19_04h34.10.630,Colour_Similarity_Experiment,2020.1.2,Win32,60,5fb5945709dec70f2d595766,,,,,,,,,,,,,,,,,,,,FF,,,,,,,,7,2.910695,,,,,,,,,,,,,,,,,,,,,,,,,,,,7,42,63,1,0,0,response1disk,2,-2,1,1,0,0,rectangle,-2,1,1,0,0,7,7,"[302,56,222,221,51,170,283,265,149,166,37,31,111,6,317,91,222,200,321,278]",-2,1,1,0,0,0,13,12,12,138,1,,,,,,,,,,,,,,,,,,,,,
,,,,,,,,,,,,,,,,,,,,,,,,,,,,,,,,,,,,,,,,,,,5ea5a65ce9c797598273b3ba,5fb5d9861124261d7ebf718c,2020-11-19_04h34.10.630,Colour_Similarity_Experiment,2020.1.2,Win32,60,5fb5945709dec70f2d595766,,,,,,,,,,,,,,,,,,,,PF,,,,,,,,6,5.116715,,,,,,,,,,,,,,,,,,,,,,,,,,,,2,73,29,1,0,0,response1disk,1,4,4,1,0,0,rectangle,4,4,1,0,0,7,1,"[302,56,222,221,51,170,283,265,149,166,37,31,111,6,317,91,222,200,321,278]",4,4,1,0,0,0,14,13,13,9,1,,,,,,,,,,,,,,,,,,,,,
,,,,,,,,,,,,,,,,,,,,,,,,,,,,,,,,,,,,,,,,,,,5ea5a65ce9c797598273b3ba,5fb5d9861124261d7ebf718c,2020-11-19_04h34.10.630,Colour_Similarity_Experiment,2020.1.2,Win32,60,5fb5945709dec70f2d595766,,,,,,,,,,,,,,,,,,,,PF,,,,,,,,6,2.149705,,,,,,,,,,,,,,,,,,,,,,,,,,,,8,48,36,1,0,0,response1disk,4,-6,-6,1,0,0,rectangle,-6,-6,1,0,0,7,1,"[302,56,222,221,51,170,283,265,149,166,37,31,111,6,317,91,222,200,321,278]",-6,-6,1,0,0,0,15,14,14,78,1,,,,,,,,,,,,,,,,,,,,,
,,,,,,,,,,,,,,,,,,,,,,,,,,,,,,,,,,,,,,,,,,,5ea5a65ce9c797598273b3ba,5fb5d9861124261d7ebf718c,2020-11-19_04h34.10.630,Colour_Similarity_Experiment,2020.1.2,Win32,60,5fb5945709dec70f2d595766,,,,,,,,,,,,,,,,,,,,PF,,,,,,,,6,6.35853,,,,,,,,,,,,,,,,,,,,,,,,,,,,2,75,35,1,0,0,response1disk,4,-9,-4,1,0,0,rectangle,-9,-4,1,0,0,7,1,"[302,56,222,221,51,170,283,265,149,166,37,31,111,6,317,91,222,200,321,278]",-9,-4,1,0,0,0,16,15,15,127,1,,,,,,,,,,,,,,,,,,,,,
,,,,,,,,,,,,,,,,,,,,,,,,,,,,,,,,,,,,,,,,,,,5ea5a65ce9c797598273b3ba,5fb5d9861124261d7ebf718c,2020-11-19_04h34.10.630,Colour_Similarity_Experiment,2020.1.2,Win32,60,5fb5945709dec70f2d595766,,,,,,,,,,,,,,,,,,,,FF,,,,,,,,7,2.67646,,,,,,,,,,,,,,,,,,,,,,,,,,,,7,36,81,1,0,0,response1disk,1,2,3,1,0,0,rectangle,2,3,1,0,0,7,1,"[302,56,222,221,51,170,283,265,149,166,37,31,111,6,317,91,222,200,321,278]",2,3,1,0,0,0,17,16,16,132,1,,,,,,,,,,,,,,,,,,,,,
,,,,,,,,,,,,,,,,,,,,,,,,,,,,,,,,,,,,,,,,,,,5ea5a65ce9c797598273b3ba,5fb5d9861124261d7ebf718c,2020-11-19_04h34.10.630,Colour_Similarity_Experiment,2020.1.2,Win32,60,5fb5945709dec70f2d595766,,,,,,,,,,,,,,,,,,,,PF,,,,,,,,0,2.3022,,,,,,,,,,,,,,,,,,,,,,,,,,,,1,-34,64,1,0,0,response7disk,1,1,-3,1,0,0,rectangle,1,-3,1,0,0,7,6,"[302,56,222,221,51,170,283,265,149,166,37,31,111,6,317,91,222,200,321,278]",1,-3,1,0,0,0,18,17,17,76,1,,,,,,,,,,,,,,,,,,,,,
,,,,,,,,,,,,,,,,,,,,,,,,,,,,,,,,,,,,,,,,,,,5ea5a65ce9c797598273b3ba,5fb5d9861124261d7ebf718c,2020-11-19_04h34.10.630,Colour_Similarity_Experiment,2020.1.2,Win32,60,5fb5945709dec70f2d595766,,,,,,,,,,,,,,,,,,,,PF,,,,,,,,3,6.869765,,,,,,,,,,,,,,,,,,,,,,,,,,,,4,-58,-84,1,0,0,response5disk,3,-5,1,1,0,0,rectangle,-5,1,1,0,0,7,1,"[302,56,222,221,51,170,283,265,149,166,37,31,111,6,317,91,222,200,321,278]",-5,1,1,0,0,0,19,18,18,89,1,,,,,,,,,,,,,,,,,,,,,
,,,,,,,,,,,,,,,,,,,,,,,,,,,,,,,,,,,,,,,,,,,5ea5a65ce9c797598273b3ba,5fb5d9861124261d7ebf718c,2020-11-19_04h34.10.630,Colour_Similarity_Experiment,2020.1.2,Win32,60,5fb5945709dec70f2d595766,,,,,,,,,,,,,,,,,,,,FF,,,,,,,,7,2.780305,,,,,,,,,,,,,,,,,,,,,,,,,,,,1,44,53,1,0,0,response1disk,4,1,9,1,0,0,rectangle,1,9,1,0,0,7,4,"[302,56,222,221,51,170,283,265,149,166,37,31,111,6,317,91,222,200,321,278]",1,9,1,0,0,0,20,19,19,135,1,,,,,,,,,,,,,,,,,,,,,
,,,,,,,,,,,,,,,,,,,,,,,,,,,,,,,,,,,,,,,,,,,5ea5a65ce9c797598273b3ba,5fb5d9861124261d7ebf718c,2020-11-19_04h34.10.630,Colour_Similarity_Experiment,2020.1.2,Win32,60,5fb5945709dec70f2d595766,,,,,,,,,,,,,,,,,,,,FF,,,,,,,,4,3.760435,,,,,,,,,,,,,,,,,,,,,,,,,,,,4,31,-76,1,0,0,response3disk,5,-1,5,1,0,0,rectangle,-1,5,1,0,0,7,5,"[302,56,222,221,51,170,283,265,149,166,37,31,111,6,317,91,222,200,321,278]",-1,5,1,0,0,0,21,20,20,116,1,,,,,,,,,,,,,,,,,,,,,
,,,,,,,,,,,,,,,,,,,,,,,,,,,,,,,,,,,,,,,,,,,5ea5a65ce9c797598273b3ba,5fb5d9861124261d7ebf718c,2020-11-19_04h34.10.630,Colour_Similarity_Experiment,2020.1.2,Win32,60,5fb5945709dec70f2d595766,,,,,,,,,,,,,,,,,,,,FF,,,,,,,,7,3.288895,,,,,,,,,,,,,,,,,,,,,,,,,,,,3,39,57,1,0,0,response1disk,1,-12,-2,1,0,0,rectangle,-12,-2,1,0,0,7,5,"[302,56,222,221,51,170,283,265,149,166,37,31,111,6,317,91,222,200,321,278]",-12,-2,1,0,0,0,22,21,21,125,1,,,,,,,,,,,,,,,,,,,,,
,,,,,,,,,,,,,,,,,,,,,,,,,,,,,,,,,,,,,,,,,,,5ea5a65ce9c797598273b3ba,5fb5d9861124261d7ebf718c,2020-11-19_04h34.10.630,Colour_Similarity_Experiment,2020.1.2,Win32,60,5fb5945709dec70f2d595766,,,,,,,,,,,,,,,,,,,,PF,,,,,,,,0,2.24793,,,,,,,,,,,,,,,,,,,,,,,,,,,,5,-40,65,1,0,0,response7disk,5,-1,-3,1,0,0,rectangle,-1,-3,1,0,0,7,4,"[302,56,222,221,51,170,283,265,149,166,37,31,111,6,317,91,222,200,321,278]",-1,-3,1,0,0,0,23,22,22,94,1,,,,,,,,,,,,,,,,,,,,,
,,,,,,,,,,,,,,,,,,,,,,,,,,,,,,,,,,,,,,,,,,,5ea5a65ce9c797598273b3ba,5fb5d9861124261d7ebf718c,2020-11-19_04h34.10.630,Colour_Similarity_Experiment,2020.1.2,Win32,60,5fb5945709dec70f2d595766,,,,,,,,,,,,,,,,,,,,FF,,,,,,,,7,5.48092,,,,,,,,,,,,,,,,,,,,,,,,,,,,9,41,57,1,0,0,response1disk,3,0,1,1,0,0,rectangle,0,1,1,0,0,7,0,"[302,56,222,221,51,170,283,265,149,166,37,31,111,6,317,91,222,200,321,278]",0,1,1,0,0,0,24,23,23,141,1,,,,,,,,,,,,,,,,,,,,,
,,,,,,,,,,,,,,,,,,,,,,,,,,,,,,,,,,,,,,,,,,,5ea5a65ce9c797598273b3ba,5fb5d9861124261d7ebf718c,2020-11-19_04h34.10.630,Colour_Similarity_Experiment,2020.1.2,Win32,60,5fb5945709dec70f2d595766,,,,,,,,,,,,,,,,,,,,PF,,,,,,,,6,4.31611,,,,,,,,,,,,,,,,,,,,,,,,,,,,5,65,59,1,0,0,response1disk,9,-3,2,1,0,0,rectangle,-3,2,1,0,0,7,0,"[302,56,222,221,51,170,283,265,149,166,37,31,111,6,317,91,222,200,321,278]",-3,2,1,0,0,0,25,24,24,136,1,,,,,,,,,,,,,,,,,,,,,
,,,,,,,,,,,,,,,,,,,,,,,,,,,,,,,,,,,,,,,,,,,5ea5a65ce9c797598273b3ba,5fb5d9861124261d7ebf718c,2020-11-19_04h34.10.630,Colour_Similarity_Experiment,2020.1.2,Win32,60,5fb5945709dec70f2d595766,,,,,,,,,,,,,,,,,,,,PF,,,,,,,,7,4.35473,,,,,,,,,,,,,,,,,,,,,,,,,,,,6,51,75,1,0,0,response1disk,2,-3,4,1,0,0,rectangle,-3,4,1,0,0,7,4,"[302,56,222,221,51,170,283,265,149,166,37,31,111,6,317,91,222,200,321,278]",-3,4,1,0,0,0,26,25,25,130,1,,,,,,,,,,,,,,,,,,,,,
,,,,,,,,,,,,,,,,,,,,,,,,,,,,,,,,,,,,,,,,,,,5ea5a65ce9c797598273b3ba,5fb5d9861124261d7ebf718c,2020-11-19_04h34.10.630,Colour_Similarity_Experiment,2020.1.2,Win32,60,5fb5945709dec70f2d595766,,,,,,,,,,,,,,,,,,,,PF,,,,,,,,7,3.163675,,,,,,,,,,,,,,,,,,,,,,,,,,,,8,59,75,1,0,0,response1disk,2,-4,1,1,0,0,rectangle,-4,1,1,0,0,7,2,"[302,56,222,221,51,170,283,265,149,166,37,31,111,6,317,91,222,200,321,278]",-4,1,1,0,0,0,27,26,26,83,1,,,,,,,,,,,,,,,,,,,,,
,,,,,,,,,,,,,,,,,,,,,,,,,,,,,,,,,,,,,,,,,,,5ea5a65ce9c797598273b3ba,5fb5d9861124261d7ebf718c,2020-11-19_04h34.10.630,Colour_Similarity_Experiment,2020.1.2,Win32,60,5fb5945709dec70f2d595766,,,,,,,,,,,,,,,,,,,,PF,,,,,,,,5,6.65767,,,,,,,,,,,,,,,,,,,,,,,,,,,,7,59,-35,1,0,0,response3disk,5,-4,1,1,0,0,rectangle,-4,1,1,0,0,7,4,"[302,56,222,221,51,170,283,265,149,166,37,31,111,6,317,91,222,200,321,278]",-4,1,1,0,0,0,28,27,27,92,1,,,,,,,,,,,,,,,,,,,,,
,,,,,,,,,,,,,,,,,,,,,,,,,,,,,,,,,,,,,,,,,,,5ea5a65ce9c797598273b3ba,5fb5d9861124261d7ebf718c,2020-11-19_04h34.10.630,Colour_Similarity_Experiment,2020.1.2,Win32,60,5fb5945709dec70f2d595766,,,,,,,,,,,,,,,,,,,,PF,,,,,,,,7,3.820505,,,,,,,,,,,,,,,,,,,,,,,,,,,,3,50,60,1,0,0,response1disk,1,5,-4,1,0,0,rectangle,5,-4,1,0,0,7,3,"[302,56,222,221,51,170,283,265,149,166,37,31,111,6,317,91,222,200,321,278]",5,-4,1,0,0,0,29,28,28,96,1,,,,,,,,,,,,,,,,,,,,,
,,,,,,,,,,,,,,,,,,,,,,,,,,,,,,,,,,,,,,,,,,,5ea5a65ce9c797598273b3ba,5fb5d9861124261d7ebf718c,2020-11-19_04h34.10.630,Colour_Similarity_Experiment,2020.1.2,Win32,60,5fb5945709dec70f2d595766,,,,,,,,,,,,,,,,,,,,FF,,,,,,,,7,2.50917,,,,,,,,,,,,,,,,,,,,,,,,,,,,1,49,69,1,0,0,response1disk,3,-2,-3,1,0,0,rectangle,-2,-3,1,0,0,7,3,"[302,56,222,221,51,170,283,265,149,166,37,31,111,6,317,91,222,200,321,278]",-2,-3,1,0,0,0,30,29,29,99,1,,,,,,,,,,,,,,,,,,,,,
,,,,,,,,,,,,,,,,,,,,,,,,,,,,,,,,,,,,,,,,,,,5ea5a65ce9c797598273b3ba,5fb5d9861124261d7ebf718c,2020-11-19_04h34.10.630,Colour_Similarity_Experiment,2020.1.2,Win32,60,5fb5945709dec70f2d595766,,,,,,,,,,,,,,,,,,,,FF,,,,,,,,5,6.268445,,,,,,,,,,,,,,,,,,,,,,,,,,,,5,46,-33,1,0,0,response3disk,7,-5,2,1,0,0,rectangle,-37,79,1,0,0,0,0,"[302,56,222,221,51,170,283,265,149,166,37,31,111,6,317,91,222,200,321,278]",-4,2,1,0,0,0,31,30,30,7,1,response7disk_3,rectangle,,,,,,,,,,,,,,,,,,,
,,,,,,,,,,,,,,,,,,,,,,,,,,,,,,,,,,,,,,,,,,,5ea5a65ce9c797598273b3ba,5fb5d9861124261d7ebf718c,2020-11-19_04h34.10.630,Colour_Similarity_Experiment,2020.1.2,Win32,60,5fb5945709dec70f2d595766,,,,,,,,,,,,,,,,,,,,PF,,,,,,,,6,4.8449,,,,,,,,,,,,,,,,,,,,,,,,,,,,7,53,39,1,0,0,response1disk,8,-7,6,1,0,0,rectangle,-7,6,1,0,0,0,3,"[302,56,222,221,51,170,283,265,149,166,37,31,111,6,317,91,222,200,321,278]",-7,6,1,0,0,0,32,31,31,140,1,,,,,,,,,,,,,,,,,,,,,
,,,,,,,,,,,,,,,,,,,,,,,,,,,,,,,,,,,,,,,,,,,5ea5a65ce9c797598273b3ba,5fb5d9861124261d7ebf718c,2020-11-19_04h34.10.630,Colour_Similarity_Experiment,2020.1.2,Win32,60,5fb5945709dec70f2d595766,,,,,,,,,,,,,,,,,,,,PF,,,,,,,,6,2.472115,,,,,,,,,,,,,,,,,,,,,,,,,,,,8,69,41,1,0,0,response1disk,7,-7,1,1,0,0,rectangle,-7,1,1,0,0,0,3,"[302,56,222,221,51,170,283,265,149,166,37,31,111,6,317,91,222,200,321,278]",-7,1,1,0,0,0,33,32,32,23,1,,,,,,,,,,,,,,,,,,,,,
,,,,,,,,,,,,,,,,,,,,,,,,,,,,,,,,,,,,,,,,,,,5ea5a65ce9c797598273b3ba,5fb5d9861124261d7ebf718c,2020-11-19_04h34.10.630,Colour_Similarity_Experiment,2020.1.2,Win32,60,5fb5945709dec70f2d595766,,,,,,,,,,,,,,,,,,,,PF,,,,,,,,2,3.85178,,,,,,,,,,,,,,,,,,,,,,,,,,,,5,-79,-27,1,0,0,response5disk,6,-4,5,1,0,0,rectangle,-4,5,1,0,0,0,0,"[302,56,222,221,51,170,283,265,149,166,37,31,111,6,317,91,222,200,321,278]",-4,5,1,0,0,0,34,33,33,103,1,,,,,,,,,,,,,,,,,,,,,
,,,,,,,,,,,,,,,,,,,,,,,,,,,,,,,,,,,,,,,,,,,5ea5a65ce9c797598273b3ba,5fb5d9861124261d7ebf718c,2020-11-19_04h34.10.630,Colour_Similarity_Experiment,2020.1.2,Win32,60,5fb5945709dec70f2d595766,,,,,,,,,,,,,,,,,,,,PF,,,,,,,,1,3.743795,,,,,,,,,,,,,,,,,,,,,,,,,,,,6,-63,46,1,0,0,response7disk,6,-4,1,1,0,0,rectangle,-4,1,1,0,0,0,7,"[302,56,222,221,51,170,283,265,149,166,37,31,111,6,317,91,222,200,321,278]",-4,1,1,0,0,0,35,34,34,0,1,,,,,,,,,,,,,,,,,,,,,
,,,,,,,,,,,,,,,,,,,,,,,,,,,,,,,,,,,,,,,,,,,5ea5a65ce9c797598273b3ba,5fb5d9861124261d7ebf718c,2020-11-19_04h34.10.630,Colour_Similarity_Experiment,2020.1.2,Win32,60,5fb5945709dec70f2d595766,,,,,,,,,,,,,,,,,,,,FF,,,,,,,,7,1.980825,,,,,,,,,,,,,,,,,,,,,,,,,,,,4,29,63,1,0,0,response1disk,8,-10,-4,1,0,0,rectangle,-10,-4,1,0,0,0,6,"[302,56,222,221,51,170,283,265,149,166,37,31,111,6,317,91,222,200,321,278]",-10,-4,1,0,0,0,36,35,35,35,1,,,,,,,,,,,,,,,,,,,,,
,,,,,,,,,,,,,,,,,,,,,,,,,,,,,,,,,,,,,,,,,,,5ea5a65ce9c797598273b3ba,5fb5d9861124261d7ebf718c,2020-11-19_04h34.10.630,Colour_Similarity_Experiment,2020.1.2,Win32,60,5fb5945709dec70f2d595766,,,,,,,,,,,,,,,,,,,,PF,,,,,,,,7,2.96315,,,,,,,,,,,,,,,,,,,,,,,,,,,,9,59,70,1,0,0,response1disk,5,-5,-2,1,0,0,rectangle,-55,-77,1,0,0,3,3,"[302,56,222,221,51,170,283,265,149,166,37,31,111,6,317,91,222,200,321,278]",1,-1,1,0,0,0,37,36,36,134,1,response5disk_3,rectangle,,,,,,,,,,,,,,,,,,,
,,,,,,,,,,,,,,,,,,,,,,,,,,,,,,,,,,,,,,,,,,,5ea5a65ce9c797598273b3ba,5fb5d9861124261d7ebf718c,2020-11-19_04h34.10.630,Colour_Similarity_Experiment,2020.1.2,Win32,60,5fb5945709dec70f2d595766,,,,,,,,,,,,,,,,,,,,FF,,,,,,,,6,6.11948,,,,,,,,,,,,,,,,,,,,,,,,,,,,1,49,41,1,0,0,response1disk,2,0,0,1,0,0,rectangle,0,0,1,0,0,3,1,"[302,56,222,221,51,170,283,265,149,166,37,31,111,6,317,91,222,200,321,278]",0,0,1,0,0,0,38,37,37,2,1,,,,,,,,,,,,,,,,,,,,,
,,,,,,,,,,,,,,,,,,,,,,,,,,,,,,,,,,,,,,,,,,,5ea5a65ce9c797598273b3ba,5fb5d9861124261d7ebf718c,2020-11-19_04h34.10.630,Colour_Similarity_Experiment,2020.1.2,Win32,60,5fb5945709dec70f2d595766,,,,,,,,,,,,,,,,,,,,FF,,,,,,,,7,4.64235,,,,,,,,,,,,,,,,,,,,,,,,,,,,9,50,66,1,0,0,response1disk,6,-1,-3,1,0,0,rectangle,-1,-3,1,0,0,3,1,"[302,56,222,221,51,170,283,265,149,166,37,31,111,6,317,91,222,200,321,278]",-1,-3,1,0,0,0,39,38,38,117,1,,,,,,,,,,,,,,,,,,,,,
,,,,,,,,,,,,,,,,,,,,,,,,,,,,,,,,,,,,,,,,,,,5ea5a65ce9c797598273b3ba,5fb5d9861124261d7ebf718c,2020-11-19_04h34.10.630,Colour_Similarity_Experiment,2020.1.2,Win32,60,5fb5945709dec70f2d595766,,,,,,,,,,,,,,,,,,,,PF,,,,,,,,7,3.176435,,,,,,,,,,,,,,,,,,,,,,,,,,,,8,39,68,1,0,0,response1disk,3,-5,-8,1,0,0,rectangle,-5,-8,1,0,0,3,6,"[302,56,222,221,51,170,283,265,149,166,37,31,111,6,317,91,222,200,321,278]",-5,-8,1,0,0,0,40,39,39,71,1,,,,,,,,,,,,,,,,,,,,,
,,,,,,,,,,,,,,,,,,,,,,,,,,,,,,,,,,,,,,,,,,,5ea5a65ce9c797598273b3ba,5fb5d9861124261d7ebf718c,2020-11-19_04h34.10.630,Colour_Similarity_Experiment,2020.1.2,Win32,60,5fb5945709dec70f2d595766,,,,,,,,,,,,,,,,,,,,FF,,,,,,,,7,4.22883,,,,,,,,,,,,,,,,,,,,,,,,,,,,3,38,55,1,0,0,response1disk,9,-4,6,1,0,0,rectangle,-4,6,1,0,0,3,5,"[302,56,222,221,51,170,283,265,149,166,37,31,111,6,317,91,222,200,321,278]",-4,6,1,0,0,0,41,40,40,143,1,,,,,,,,,,,,,,,,,,,,,
,,,,,,,,,,,,,,,,,,,,,,,,,,,,,,,,,,,,,,,,,,,5ea5a65ce9c797598273b3ba,5fb5d9861124261d7ebf718c,2020-11-19_04h34.10.630,Colour_Similarity_Experiment,2020.1.2,Win32,60,5fb5945709dec70f2d595766,,,,,,,,,,,,,,,,,,,,PF,,,,,,,,6,3.404335,,,,,,,,,,,,,,,,,,,,,,,,,,,,8,54,44,1,0,0,response1disk,6,-8,-9,1,0,0,rectangle,-8,-9,1,0,0,3,7,"[302,56,222,221,51,170,283,265,149,166,37,31,111,6,317,91,222,200,321,278]",-8,-9,1,0,0,0,42,41,41,161,1,,,,,,,,,,,,,,,,,,,,,
,,,,,,,,,,,,,,,,,,,,,,,,,,,,,,,,,,,,,,,,,,,5ea5a65ce9c797598273b3ba,5fb5d9861124261d7ebf718c,2020-11-19_04h34.10.630,Colour_Similarity_Experiment,2020.1.2,Win32,60,5fb5945709dec70f2d595766,,,,,,,,,,,,,,,,,,,,FF,,,,,,,,7,3.96735,,,,,,,,,,,,,,,,,,,,,,,,,,,,4,42,77,1,0,0,response1disk,9,-3,5,1,0,0,rectangle,-3,5,1,0,0,3,6,"[302,56,222,221,51,170,283,265,149,166,37,31,111,6,317,91,222,200,321,278]",-3,5,1,0,0,0,43,42,42,90,1,,,,,,,,,,,,,,,,,,,,,
,,,,,,,,,,,,,,,,,,,,,,,,,,,,,,,,,,,,,,,,,,,5ea5a65ce9c797598273b3ba,5fb5d9861124261d7ebf718c,2020-11-19_04h34.10.630,Colour_Similarity_Experiment,2020.1.2,Win32,60,5fb5945709dec70f2d595766,,,,,,,,,,,,,,,,,,,,FF,,,,,,,,0,2.173085,,,,,,,,,,,,,,,,,,,,,,,,,,,,9,-45,77,1,0,0,response7disk,9,11,-9,1,0,0,rectangle,11,-9,1,0,0,3,1,"[302,56,222,221,51,170,283,265,149,166,37,31,111,6,317,91,222,200,321,278]",11,-9,1,0,0,0,44,43,43,17,1,,,,,,,,,,,,,,,,,,,,,
,,,,,,,,,,,,,,,,,,,,,,,,,,,,,,,,,,,,,,,,,,,5ea5a65ce9c797598273b3ba,5fb5d9861124261d7ebf718c,2020-11-19_04h34.10.630,Colour_Similarity_Experiment,2020.1.2,Win32,60,5fb5945709dec70f2d595766,,,,,,,,,,,,,,,,,,,,PF,,,,,,,,7,6.54471,,,,,,,,,,,,,,,,,,,,,,,,,,,,7,51,72,1,0,0,response1disk,2,3,-9,1,0,0,rectangle,3,-9,1,0,0,3,6,"[302,56,222,221,51,170,283,265,149,166,37,31,111,6,317,91,222,200,321,278]",3,-9,1,0,0,0,45,44,44,32,1,,,,,,,,,,,,,,,,,,,,,
,,,,,,,,,,,,,,,,,,,,,,,,,,,,,,,,,,,,,,,,,,,5ea5a65ce9c797598273b3ba,5fb5d9861124261d7ebf718c,2020-11-19_04h34.10.630,Colour_Similarity_Experiment,2020.1.2,Win32,60,5fb5945709dec70f2d595766,,,,,,,,,,,,,,,,,,,,FF,,,,,,,,7,2.228505,,,,,,,,,,,,,,,,,,,,,,,,,,,,8,36,60,1,0,0,response1disk,3,2,1,1,0,0,rectangle,2,1,1,0,0,3,4,"[302,56,222,221,51,170,283,265,149,166,37,31,111,6,317,91,222,200,321,278]",2,1,1,0,0,0,46,45,45,154,1,,,,,,,,,,,,,,,,,,,,,
,,,,,,,,,,,,,,,,,,,,,,,,,,,,,,,,,,,,,,,,,,,5ea5a65ce9c797598273b3ba,5fb5d9861124261d7ebf718c,2020-11-19_04h34.10.630,Colour_Similarity_Experiment,2020.1.2,Win32,60,5fb5945709dec70f2d595766,,,,,,,,,,,,,,,,,,,,FF,,,,,,,,7,2.580855,,,,,,,,,,,,,,,,,,,,,,,,,,,,6,39,79,1,0,0,response1disk,8,-7,-1,1,0,0,rectangle,-7,-1,1,0,0,3,6,"[302,56,222,221,51,170,283,265,149,166,37,31,111,6,317,91,222,200,321,278]",-7,-1,1,0,0,0,47,46,46,133,1,,,,,,,,,,,,,,,,,,,,,
,,,,,,,,,,,,,,,,,,,,,,,,,,,,,,,,,,,,,,,,,,,5ea5a65ce9c797598273b3ba,5fb5d9861124261d7ebf718c,2020-11-19_04h34.10.630,Colour_Similarity_Experiment,2020.1.2,Win32,60,5fb5945709dec70f2d595766,,,,,,,,,,,,,,,,,,,,FF,,,,,,,,6,4.22906,,,,,,,,,,,,,,,,,,,,,,,,,,,,4,59,47,1,0,0,response1disk,7,7,1,1,0,0,rectangle,7,1,1,0,0,3,5,"[302,56,222,221,51,170,283,265,149,166,37,31,111,6,317,91,222,200,321,278]",7,1,1,0,0,0,48,47,47,87,1,,,,,,,,,,,,,,,,,,,,,
,,,,,,,,,,,,,,,,,,,,,,,,,,,,,,,,,,,,,,,,,,,5ea5a65ce9c797598273b3ba,5fb5d9861124261d7ebf718c,2020-11-19_04h34.10.630,Colour_Similarity_Experiment,2020.1.2,Win32,60,5fb5945709dec70f2d595766,,,,,,,,,,,,,,,,,,,,FF,,,,,,,,5,4.056745,,,,,,,,,,,,,,,,,,,,,,,,,,,,8,53,-21,1,0,0,response3disk,9,1,2,1,0,0,rectangle,1,2,1,0,0,3,5,"[302,56,222,221,51,170,283,265,149,166,37,31,111,6,317,91,222,200,321,278]",1,2,1,0,0,0,49,48,48,105,1,,,,,,,,,,,,,,,,,,,,,
,,,,,,,,,,,,,,,,,,,,,,,,,,,,,,,,,,,,,,,,,,,5ea5a65ce9c797598273b3ba,5fb5d9861124261d7ebf718c,2020-11-19_04h34.10.630,Colour_Similarity_Experiment,2020.1.2,Win32,60,5fb5945709dec70f2d595766,,,,,,,,,,,,,,,,,,,,FF,,,,,,,,6,2.83774,,,,,,,,,,,,,,,,,,,,,,,,,,,,9,75,49,1,0,0,response1disk,4,-13,-7,1,0,0,rectangle,-13,-7,1,0,0,3,1,"[302,56,222,221,51,170,283,265,149,166,37,31,111,6,317,91,222,200,321,278]",-13,-7,1,0,0,0,50,49,49,60,1,,,,,,,,,,,,,,,,,,,,,
,,,,,,,,,,,,,,,,,,,,,,,,,,,,,,,,,,,,,,,,,,,5ea5a65ce9c797598273b3ba,5fb5d9861124261d7ebf718c,2020-11-19_04h34.10.630,Colour_Similarity_Experiment,2020.1.2,Win32,60,5fb5945709dec70f2d595766,,,,,,,,,,,,,,,,,,,,FF,,,,,,,,3,2.88444,,,,,,,,,,,,,,,,,,,,,,,,,,,,5,-30,-60,1,0,0,response5disk,3,-2,1,1,0,0,rectangle,34,-74,1,0,0,4,4,"[302,56,222,221,51,170,283,265,149,166,37,31,111,6,317,91,222,200,321,278]",-7,2,1,0,0,0,51,50,50,25,1,response3disk_3,rectangle,,,,,,,,,,,,,,,,,,,
,,,,,,,,,,,,,,,,,,,,,,,,,,,,,,,,,,,,,,,,,,,5ea5a65ce9c797598273b3ba,5fb5d9861124261d7ebf718c,2020-11-19_04h34.10.630,Colour_Similarity_Experiment,2020.1.2,Win32,60,5fb5945709dec70f2d595766,,,,,,,,,,,,,,,,,,,,PF,,,,,,,,5,3.64331,,,,,,,,,,,,,,,,,,,,,,,,,,,,2,47,-36,1,0,0,response3disk,6,-11,0,1,0,0,rectangle,-11,0,1,0,0,4,3,"[302,56,222,221,51,170,283,265,149,166,37,31,111,6,317,91,222,200,321,278]",-11,0,1,0,0,0,52,51,51,113,1,,,,,,,,,,,,,,,,,,,,,
,,,,,,,,,,,,,,,,,,,,,,,,,,,,,,,,,,,,,,,,,,,5ea5a65ce9c797598273b3ba,5fb5d9861124261d7ebf718c,2020-11-19_04h34.10.630,Colour_Similarity_Experiment,2020.1.2,Win32,60,5fb5945709dec70f2d595766,,,,,,,,,,,,,,,,,,,,PF,,,,,,,,7,4.271975,,,,,,,,,,,,,,,,,,,,,,,,,,,,1,48,63,1,0,0,response1disk,4,7,-4,1,0,0,rectangle,7,-4,1,0,0,4,4,"[302,56,222,221,51,170,283,265,149,166,37,31,111,6,317,91,222,200,321,278]",7,-4,1,0,0,0,53,52,52,139,1,,,,,,,,,,,,,,,,,,,,,
,,,,,,,,,,,,,,,,,,,,,,,,,,,,,,,,,,,,,,,,,,,5ea5a65ce9c797598273b3ba,5fb5d9861124261d7ebf718c,2020-11-19_04h34.10.630,Colour_Similarity_Experiment,2020.1.2,Win32,60,5fb5945709dec70f2d595766,,,,,,,,,,,,,,,,,,,,PF,,,,,,,,5,7.494595,,,,,,,,,,,,,,,,,,,,,,,,,,,,8,59,-32,1,0,0,response3disk,9,-2,1,1,0,0,rectangle,-2,1,1,0,0,4,2,"[302,56,222,221,51,170,283,265,149,166,37,31,111,6,317,91,222,200,321,278]",-2,1,1,0,0,0,54,53,53,42,1,,,,,,,,,,,,,,,,,,,,,
,,,,,,,,,,,,,,,,,,,,,,,,,,,,,,,,,,,,,,,,,,,5ea5a65ce9c797598273b3ba,5fb5d9861124261d7ebf718c,2020-11-19_04h34.10.630,Colour_Similarity_Experiment,2020.1.2,Win32,60,5fb5945709dec70f2d595766,,,,,,,,,,,,,,,,,,,,PF,,,,,,,,4,3.957755,,,,,,,,,,,,,,,,,,,,,,,,,,,,6,21,-84,1,0,0,response3disk,7,2,6,1,0,0,rectangle,2,6,1,0,0,4,3,"[302,56,222,221,51,170,283,265,149,166,37,31,111,6,317,91,222,200,321,278]",2,6,1,0,0,0,55,54,54,50,1,,,,,,,,,,,,,,,,,,,,,
,,,,,,,,,,,,,,,,,,,,,,,,,,,,,,,,,,,,,,,,,,,5ea5a65ce9c797598273b3ba,5fb5d9861124261d7ebf718c,2020-11-19_04h34.10.630,Colour_Similarity_Experiment,2020.1.2,Win32,60,5fb5945709dec70f2d595766,,,,,,,,,,,,,,,,,,,,PF,,,,,,,,6,4.38234,,,,,,,,,,,,,,,,,,,,,,,,,,,,1,55,36,1,0,0,response1disk,6,7,2,1,0,0,rectangle,29,-72,1,0,0,4,4,"[302,56,222,221,51,170,283,265,149,166,37,31,111,6,317,91,222,200,321,278]",-6,4,1,0,0,0,56,55,55,144,1,response3disk_3,rectangle,,,,,,,,,,,,,,,,,,,
,,,,,,,,,,,,,,,,,,,,,,,,,,,,,,,,,,,,,,,,,,,5ea5a65ce9c797598273b3ba,5fb5d9861124261d7ebf718c,2020-11-19_04h34.10.630,Colour_Similarity_Experiment,2020.1.2,Win32,60,5fb5945709dec70f2d595766,,,,,,,,,,,,,,,,,,,,PF,,,,,,,,6,3.051895,,,,,,,,,,,,,,,,,,,,,,,,,,,,4,62,26,1,0,0,response1disk,2,-3,-2,1,0,0,rectangle,-3,-2,1,0,0,4,6,"[302,56,222,221,51,170,283,265,149,166,37,31,111,6,317,91,222,200,321,278]",-3,-2,1,0,0,0,57,56,56,108,1,,,,,,,,,,,,,,,,,,,,,
,,,,,,,,,,,,,,,,,,,,,,,,,,,,,,,,,,,,,,,,,,,5ea5a65ce9c797598273b3ba,5fb5d9861124261d7ebf718c,2020-11-19_04h34.10.630,Colour_Similarity_Experiment,2020.1.2,Win32,60,5fb5945709dec70f2d595766,,,,,,,,,,,,,,,,,,,,FF,,,,,,,,6,2.671845,,,,,,,,,,,,,,,,,,,,,,,,,,,,5,72,29,1,0,0,response1disk,2,-2,-4,1,0,0,rectangle,-2,-4,1,0,0,4,7,"[302,56,222,221,51,170,283,265,149,166,37,31,111,6,317,91,222,200,321,278]",-2,-4,1,0,0,0,58,57,57,55,1,,,,,,,,,,,,,,,,,,,,,
,,,,,,,,,,,,,,,,,,,,,,,,,,,,,,,,,,,,,,,,,,,5ea5a65ce9c797598273b3ba,5fb5d9861124261d7ebf718c,2020-11-19_04h34.10.630,Colour_Similarity_Experiment,2020.1.2,Win32,60,5fb5945709dec70f2d595766,,,,,,,,,,,,,,,,,,,,FF,,,,,,,,7,6.12949,,,,,,,,,,,,,,,,,,,,,,,,,,,,9,45,59,1,0,0,response1disk,5,6,8,1,0,0,rectangle,6,8,1,0,0,4,6,"[302,56,222,221,51,170,283,265,149,166,37,31,111,6,317,91,222,200,321,278]",6,8,1,0,0,0,59,58,58,128,1,,,,,,,,,,,,,,,,,,,,,
,,,,,,,,,,,,,,,,,,,,,,,,,,,,,,,,,,,,,,,,,,,5ea5a65ce9c797598273b3ba,5fb5d9861124261d7ebf718c,2020-11-19_04h34.10.630,Colour_Similarity_Experiment,2020.1.2,Win32,60,5fb5945709dec70f2d595766,,,,,,,,,,,,,,,,,,,,FF,,,,,,,,5,6.47663,,,,,,,,,,,,,,,,,,,,,,,,,,,,3,53,-34,1,0,0,response3disk,7,0,5,1,0,0,rectangle,0,5,1,0,0,4,4,"[302,56,222,221,51,170,283,265,149,166,37,31,111,6,317,91,222,200,321,278]",0,5,1,0,0,0,60,59,59,118,1,,,,,,,,,,,,,,,,,,,,,
,,,,,,,,,,,,,,,,,,,,,,,,,,,,,,,,,,,,,,,,,,,5ea5a65ce9c797598273b3ba,5fb5d9861124261d7ebf718c,2020-11-19_04h34.10.630,Colour_Similarity_Experiment,2020.1.2,Win32,60,5fb5945709dec70f2d595766,,,,,,,,,,,,,,,,,,,,PF,,,,,,,,7,5.09321,,,,,,,,,,,,,,,,,,,,,,,,,,,,4,37,83,1,0,0,response1disk,8,2,1,1,0,0,rectangle,2,1,1,0,0,4,6,"[302,56,222,221,51,170,283,265,149,166,37,31,111,6,317,91,222,200,321,278]",2,1,1,0,0,0,61,60,60,124,1,,,,,,,,,,,,,,,,,,,,,
,,,,,,,,,,,,,,,,,,,,,,,,,,,,,,,,,,,,,,,,,,,5ea5a65ce9c797598273b3ba,5fb5d9861124261d7ebf718c,2020-11-19_04h34.10.630,Colour_Similarity_Experiment,2020.1.2,Win32,60,5fb5945709dec70f2d595766,,,,,,,,,,,,,,,,,,,,PF,,,,,,,,7,3.6859,,,,,,,,,,,,,,,,,,,,,,,,,,,,2,50,96,1,0,0,response1disk,7,-1,0,1,0,0,rectangle,-1,0,1,0,0,4,4,"[302,56,222,221,51,170,283,265,149,166,37,31,111,6,317,91,222,200,321,278]",-1,0,1,0,0,0,62,61,61,107,1,,,,,,,,,,,,,,,,,,,,,
,,,,,,,,,,,,,,,,,,,,,,,,,,,,,,,,,,,,,,,,,,,5ea5a65ce9c797598273b3ba,5fb5d9861124261d7ebf718c,2020-11-19_04h34.10.630,Colour_Similarity_Experiment,2020.1.2,Win32,60,5fb5945709dec70f2d595766,,,,,,,,,,,,,,,,,,,,PF,,,,,,,,6,2.973355,,,,,,,,,,,,,,,,,,,,,,,,,,,,6,53,22,1,0,0,response1disk,4,-5,3,1,0,0,rectangle,-5,3,1,0,0,4,4,"[302,56,222,221,51,170,283,265,149,166,37,31,111,6,317,91,222,200,321,278]",-5,3,1,0,0,0,63,62,62,33,1,,,,,,,,,,,,,,,,,,,,,
,,,,,,,,,,,,,,,,,,,,,,,,,,,,,,,,,,,,,,,,,,,5ea5a65ce9c797598273b3ba,5fb5d9861124261d7ebf718c,2020-11-19_04h34.10.630,Colour_Similarity_Experiment,2020.1.2,Win32,60,5fb5945709dec70f2d595766,,,,,,,,,,,,,,,,,,,,FF,,,,,,,,4,5.11098,,,,,,,,,,,,,,,,,,,,,,,,,,,,6,23,-86,1,0,0,response3disk,7,-3,11,1,0,0,rectangle,-3,11,1,0,0,4,5,"[302,56,222,221,51,170,283,265,149,166,37,31,111,6,317,91,222,200,321,278]",-3,11,1,0,0,0,64,63,63,18,1,,,,,,,,,,,,,,,,,,,,,
,,,,,,,,,,,,,,,,,,,,,,,,,,,,,,,,,,,,,,,,,,,5ea5a65ce9c797598273b3ba,5fb5d9861124261d7ebf718c,2020-11-19_04h34.10.630,Colour_Similarity_Experiment,2020.1.2,Win32,60,5fb5945709dec70f2d595766,,,,,,,,,,,,,,,,,,,,PF,,,,,,,,7,2.359155,,,,,,,,,,,,,,,,,,,,,,,,,,,,5,37,88,1,0,0,response1disk,1,5,5,1,0,0,rectangle,5,5,1,0,0,4,0,"[302,56,222,221,51,170,283,265,149,166,37,31,111,6,317,91,222,200,321,278]",5,5,1,0,0,0,65,64,64,159,1,,,,,,,,,,,,,,,,,,,,,
,,,,,,,,,,,,,,,,,,,,,,,,,,,,,,,,,,,,,,,,,,,5ea5a65ce9c797598273b3ba,5fb5d9861124261d7ebf718c,2020-11-19_04h34.10.630,Colour_Similarity_Experiment,2020.1.2,Win32,60,5fb5945709dec70f2d595766,,,,,,,,,,,,,,,,,,,,FF,,,,,,,,1,4.5514,,,,,,,,,,,,,,,,,,,,,,,,,,,,3,-69,51,1,0,0,response7disk,3,-3,-2,1,0,0,rectangle,-3,-2,1,0,0,4,2,"[302,56,222,221,51,170,283,265,149,166,37,31,111,6,317,91,222,200,321,278]",-3,-2,1,0,0,0,66,65,65,68,1,,,,,,,,,,,,,,,,,,,,,
,,,,,,,,,,,,,,,,,,,,,,,,,,,,,,,,,,,,,,,,,,,5ea5a65ce9c797598273b3ba,5fb5d9861124261d7ebf718c,2020-11-19_04h34.10.630,Colour_Similarity_Experiment,2020.1.2,Win32,60,5fb5945709dec70f2d595766,,,,,,,,,,,,,,,,,,,,FF,,,,,,,,5,4.26469,,,,,,,,,,,,,,,,,,,,,,,,,,,,3,80,-53,1,0,0,response3disk,5,-5,0,1,0,0,rectangle,-5,0,1,0,0,4,0,"[302,56,222,221,51,170,283,265,149,166,37,31,111,6,317,91,222,200,321,278]",-5,0,1,0,0,0,67,66,66,101,1,,,,,,,,,,,,,,,,,,,,,
,,,,,,,,,,,,,,,,,,,,,,,,,,,,,,,,,,,,,,,,,,,5ea5a65ce9c797598273b3ba,5fb5d9861124261d7ebf718c,2020-11-19_04h34.10.630,Colour_Similarity_Experiment,2020.1.2,Win32,60,5fb5945709dec70f2d595766,,,,,,,,,,,,,,,,,,,,FF,,,,,,,,7,4.910245,,,,,,,,,,,,,,,,,,,,,,,,,,,,8,25,64,1,0,0,response1disk,1,5,12,1,0,0,rectangle,5,12,1,0,0,4,1,"[302,56,222,221,51,170,283,265,149,166,37,31,111,6,317,91,222,200,321,278]",5,12,1,0,0,0,68,67,67,20,1,,,,,,,,,,,,,,,,,,,,,
,,,,,,,,,,,,,,,,,,,,,,,,,,,,,,,,,,,,,,,,,,,5ea5a65ce9c797598273b3ba,5fb5d9861124261d7ebf718c,2020-11-19_04h34.10.630,Colour_Similarity_Experiment,2020.1.2,Win32,60,5fb5945709dec70f2d595766,,,,,,,,,,,,,,,,,,,,FF,,,,,,,,5,3.208485,,,,,,,,,,,,,,,,,,,,,,,,,,,,6,70,-31,1,0,0,response3disk,3,-2,3,1,0,0,rectangle,-2,3,1,0,0,4,0,"[302,56,222,221,51,170,283,265,149,166,37,31,111,6,317,91,222,200,321,278]",-2,3,1,0,0,0,69,68,68,21,1,,,,,,,,,,,,,,,,,,,,,
,,,,,,,,,,,,,,,,,,,,,,,,,,,,,,,,,,,,,,,,,,,5ea5a65ce9c797598273b3ba,5fb5d9861124261d7ebf718c,2020-11-19_04h34.10.630,Colour_Similarity_Experiment,2020.1.2,Win32,60,5fb5945709dec70f2d595766,,,,,,,,,,,,,,,,,,,,PF,,,,,,,,7,3.75617,,,,,,,,,,,,,,,,,,,,,,,,,,,,3,55,68,1,0,0,response1disk,8,-7,-1,1,0,0,rectangle,-7,-1,1,0,0,4,4,"[302,56,222,221,51,170,283,265,149,166,37,31,111,6,317,91,222,200,321,278]",-7,-1,1,0,0,0,70,69,69,3,1,,,,,,,,,,,,,,,,,,,,,
,,,,,,,,,,,,,,,,,,,,,,,,,,,,,,,,,,,,,,,,,,,5ea5a65ce9c797598273b3ba,5fb5d9861124261d7ebf718c,2020-11-19_04h34.10.630,Colour_Similarity_Experiment,2020.1.2,Win32,60,5fb5945709dec70f2d595766,,,,,,,,,,,,,,,,,,,,FF,,,,,,,,3,2.76147,,,,,,,,,,,,,,,,,,,,,,,,,,,,3,-43,-66,1,0,0,response5disk,4,-4,1,1,0,0,rectangle,-4,1,1,0,0,4,2,"[302,56,222,221,51,170,283,265,149,166,37,31,111,6,317,91,222,200,321,278]",-4,1,1,0,0,0,71,70,70,110,1,,,,,,,,,,,,,,,,,,,,,
,,,,,,,,,,,,,,,,,,,,,,,,,,,,,,,,,,,,,,,,,,,5ea5a65ce9c797598273b3ba,5fb5d9861124261d7ebf718c,2020-11-19_04h34.10.630,Colour_Similarity_Experiment,2020.1.2,Win32,60,5fb5945709dec70f2d595766,,,,,,,,,,,,,,,,,,,,PF,,,,,,,,4,2.34263,,,,,,,,,,,,,,,,,,,,,,,,,,,,5,26,-67,1,0,0,response3disk,7,-1,3,1,0,0,rectangle,-1,3,1,0,0,4,7,"[302,56,222,221,51,170,283,265,149,166,37,31,111,6,317,91,222,200,321,278]",-1,3,1,0,0,0,72,71,71,146,1,,,,,,,,,,,,,,,,,,,,,
,,,,,,,,,,,,,,,,,,,,,,,,,,,,,,,,,,,,,,,,,,,5ea5a65ce9c797598273b3ba,5fb5d9861124261d7ebf718c,2020-11-19_04h34.10.630,Colour_Similarity_Experiment,2020.1.2,Win32,60,5fb5945709dec70f2d595766,,,,,,,,,,,,,,,,,,,,PF,,,,,,,,7,2.971715,,,,,,,,,,,,,,,,,,,,,,,,,,,,9,48,70,1,0,0,response1disk,4,5,0,1,0,0,rectangle,5,0,1,0,0,4,0,"[302,56,222,221,51,170,283,265,149,166,37,31,111,6,317,91,222,200,321,278]",5,0,1,0,0,0,73,72,72,114,1,,,,,,,,,,,,,,,,,,,,,
,,,,,,,,,,,,,,,,,,,,,,,,,,,,,,,,,,,,,,,,,,,5ea5a65ce9c797598273b3ba,5fb5d9861124261d7ebf718c,2020-11-19_04h34.10.630,Colour_Similarity_Experiment,2020.1.2,Win32,60,5fb5945709dec70f2d595766,,,,,,,,,,,,,,,,,,,,FF,,,,,,,,5,6.54921,,,,,,,,,,,,,,,,,,,,,,,,,,,,1,63,-55,1,0,0,response3disk,9,8,-1,1,0,0,rectangle,8,-1,1,0,0,4,4,"[302,56,222,221,51,170,283,265,149,166,37,31,111,6,317,91,222,200,321,278]",8,-1,1,0,0,0,74,73,73,123,1,,,,,,,,,,,,,,,,,,,,,
,,,,,,,,,,,,,,,,,,,,,,,,,,,,,,,,,,,,,,,,,,,5ea5a65ce9c797598273b3ba,5fb5d9861124261d7ebf718c,2020-11-19_04h34.10.630,Colour_Similarity_Experiment,2020.1.2,Win32,60,5fb5945709dec70f2d595766,,,,,,,,,,,,,,,,,,,,PF,,,,,,,,2,2.590015,,,,,,,,,,,,,,,,,,,,,,,,,,,,3,-57,-35,1,0,0,response5disk,3,1,-2,1,0,0,rectangle,1,-2,1,0,0,4,7,"[302,56,222,221,51,170,283,265,149,166,37,31,111,6,317,91,222,200,321,278]",1,-2,1,0,0,0,75,74,74,4,1,,,,,,,,,,,,,,,,,,,,,
,,,,,,,,,,,,,,,,,,,,,,,,,,,,,,,,,,,,,,,,,,,5ea5a65ce9c797598273b3ba,5fb5d9861124261d7ebf718c,2020-11-19_04h34.10.630,Colour_Similarity_Experiment,2020.1.2,Win32,60,5fb5945709dec70f2d595766,,,,,,,,,,,,,,,,,,,,FF,,,,,,,,6,4.6387,,,,,,,,,,,,,,,,,,,,,,,,,,,,2,63,52,1,0,0,response1disk,7,5,1,1,0,0,rectangle,5,1,1,0,0,4,0,"[302,56,222,221,51,170,283,265,149,166,37,31,111,6,317,91,222,200,321,278]",5,1,1,0,0,0,76,75,75,63,1,,,,,,,,,,,,,,,,,,,,,
,,,,,,,,,,,,,,,,,,,,,,,,,,,,,,,,,,,,,,,,,,,5ea5a65ce9c797598273b3ba,5fb5d9861124261d7ebf718c,2020-11-19_04h34.10.630,Colour_Similarity_Experiment,2020.1.2,Win32,60,5fb5945709dec70f2d595766,,,,,,,,,,,,,,,,,,,,FF,,,,,,,,5,3.816815,,,,,,,,,,,,,,,,,,,,,,,,,,,,7,69,-54,1,0,0,response3disk,5,2,5,1,0,0,rectangle,2,5,1,0,0,4,4,"[302,56,222,221,51,170,283,265,149,166,37,31,111,6,317,91,222,200,321,278]",2,5,1,0,0,0,77,76,76,156,1,,,,,,,,,,,,,,,,,,,,,
,,,,,,,,,,,,,,,,,,,,,,,,,,,,,,,,,,,,,,,,,,,5ea5a65ce9c797598273b3ba,5fb5d9861124261d7ebf718c,2020-11-19_04h34.10.630,Colour_Similarity_Experiment,2020.1.2,Win32,60,5fb5945709dec70f2d595766,,,,,,,,,,,,,,,,,,,,FF,,,,,,,,7,2.94645,,,,,,,,,,,,,,,,,,,,,,,,,,,,1,39,63,1,0,0,response1disk,8,5,9,1,0,0,rectangle,5,9,1,0,0,4,6,"[302,56,222,221,51,170,283,265,149,166,37,31,111,6,317,91,222,200,321,278]",5,9,1,0,0,0,78,77,77,27,1,,,,,,,,,,,,,,,,,,,,,
,,,,,,,,,,,,,,,,,,,,,,,,,,,,,,,,,,,,,,,,,,,5ea5a65ce9c797598273b3ba,5fb5d9861124261d7ebf718c,2020-11-19_04h34.10.630,Colour_Similarity_Experiment,2020.1.2,Win32,60,5fb5945709dec70f2d595766,,,,,,,,,,,,,,,,,,,,FF,,,,,,,,6,3.01448,,,,,,,,,,,,,,,,,,,,,,,,,,,,2,66,44,1,0,0,response1disk,5,-2,2,1,0,0,rectangle,-2,2,1,0,0,4,3,"[302,56,222,221,51,170,283,265,149,166,37,31,111,6,317,91,222,200,321,278]",-2,2,1,0,0,0,79,78,78,80,1,,,,,,,,,,,,,,,,,,,,,
,,,,,,,,,,,,,,,,,,,,,,,,,,,,,,,,,,,,,,,,,,,5ea5a65ce9c797598273b3ba,5fb5d9861124261d7ebf718c,2020-11-19_04h34.10.630,Colour_Similarity_Experiment,2020.1.2,Win32,60,5fb5945709dec70f2d595766,,,,,,,,,,,,,,,,,,,,PF,,,,,,,,5,2.794585,,,,,,,,,,,,,,,,,,,,,,,,,,,,3,54,-40,1,0,0,response3disk,4,-11,2,1,0,0,rectangle,-11,2,1,0,0,4,0,"[302,56,222,221,51,170,283,265,149,166,37,31,111,6,317,91,222,200,321,278]",-11,2,1,0,0,0,80,79,79,30,1,,,,,,,,,,,,,,,,,,,,,
,,,,,,,,,,,,,,,,,,,,,,,,,,,,,,,,,,,,,,,,,,,5ea5a65ce9c797598273b3ba,5fb5d9861124261d7ebf718c,2020-11-19_04h34.10.630,Colour_Similarity_Experiment,2020.1.2,Win32,60,5fb5945709dec70f2d595766,,,,,,,,,,,,,,,,,,,,FF,,,,,,,,6,3.79116,,,,,,,,,,,,,,,,,,,,,,,,,,,,7,56,52,1,0,0,response1disk,8,9,6,1,0,0,rectangle,9,6,1,0,0,4,7,"[302,56,222,221,51,170,283,265,149,166,37,31,111,6,317,91,222,200,321,278]",9,6,1,0,0,0,81,80,80,97,1,,,,,,,,,,,,,,,,,,,,,
,,,,,,,,,,,,,,,,,,,,,,,,,,,,,,,,,,,,,,,,,,,5ea5a65ce9c797598273b3ba,5fb5d9861124261d7ebf718c,2020-11-19_04h34.10.630,Colour_Similarity_Experiment,2020.1.2,Win32,60,5fb5945709dec70f2d595766,,,,,,,,,,,,,,,,,,,,PF,,,,,,,,7,3.99337,,,,,,,,,,,,,,,,,,,,,,,,,,,,7,63,85,1,0,0,response1disk,9,5,10,1,0,0,rectangle,5,10,1,0,0,4,7,"[302,56,222,221,51,170,283,265,149,166,37,31,111,6,317,91,222,200,321,278]",5,10,1,0,0,0,82,81,81,10,1,,,,,,,,,,,,,,,,,,,,,
,,,,,,,,,,,,,,,,,,,,,,,,,,,,,,,,,,,,,,,,,,,5ea5a65ce9c797598273b3ba,5fb5d9861124261d7ebf718c,2020-11-19_04h34.10.630,Colour_Similarity_Experiment,2020.1.2,Win32,60,5fb5945709dec70f2d595766,,,,,,,,,,,,,,,,,,,,PF,,,,,,,,6,3.08085,,,,,,,,,,,,,,,,,,,,,,,,,,,,1,64,53,1,0,0,response1disk,5,-5,2,1,0,0,rectangle,-5,2,1,0,0,4,2,"[302,56,222,221,51,170,283,265,149,166,37,31,111,6,317,91,222,200,321,278]",-5,2,1,0,0,0,83,82,82,28,1,,,,,,,,,,,,,,,,,,,,,
,,,,,,,,,,,,,,,,,,,,,,,,,,,,,,,,,,,,,,,,,,,5ea5a65ce9c797598273b3ba,5fb5d9861124261d7ebf718c,2020-11-19_04h34.10.630,Colour_Similarity_Experiment,2020.1.2,Win32,60,5fb5945709dec70f2d595766,,,,,,,,,,,,,,,,,,,,FF,,,,,,,,6,2.840265,,,,,,,,,,,,,,,,,,,,,,,,,,,,2,67,58,1,0,0,response1disk,1,1,5,1,0,0,rectangle,1,5,1,0,0,4,4,"[302,56,222,221,51,170,283,265,149,166,37,31,111,6,317,91,222,200,321,278]",1,5,1,0,0,0,84,83,83,85,1,,,,,,,,,,,,,,,,,,,,,
,,,,,,,,,,,,,,,,,,,,,,,,,,,,,,,,,,,,,,,,,,,5ea5a65ce9c797598273b3ba,5fb5d9861124261d7ebf718c,2020-11-19_04h34.10.630,Colour_Similarity_Experiment,2020.1.2,Win32,60,5fb5945709dec70f2d595766,,,,,,,,,,,,,,,,,,,,FF,,,,,,,,6,2.63053,,,,,,,,,,,,,,,,,,,,,,,,,,,,2,62,53,1,0,0,response1disk,6,1,9,1,0,0,rectangle,1,9,1,0,0,4,3,"[302,56,222,221,51,170,283,265,149,166,37,31,111,6,317,91,222,200,321,278]",1,9,1,0,0,0,85,84,84,40,1,,,,,,,,,,,,,,,,,,,,,
,,,,,,,,,,,,,,,,,,,,,,,,,,,,,,,,,,,,,,,,,,,5ea5a65ce9c797598273b3ba,5fb5d9861124261d7ebf718c,2020-11-19_04h34.10.630,Colour_Similarity_Experiment,2020.1.2,Win32,60,5fb5945709dec70f2d595766,,,,,,,,,,,,,,,,,,,,FF,,,,,,,,6,2.53106,,,,,,,,,,,,,,,,,,,,,,,,,,,,2,92,47,1,0,0,response1disk,9,-1,3,1,0,0,rectangle,-1,3,1,0,0,4,1,"[302,56,222,221,51,170,283,265,149,166,37,31,111,6,317,91,222,200,321,278]",-1,3,1,0,0,0,86,85,85,72,1,,,,,,,,,,,,,,,,,,,,,
,,,,,,,,,,,,,,,,,,,,,,,,,,,,,,,,,,,,,,,,,,,5ea5a65ce9c797598273b3ba,5fb5d9861124261d7ebf718c,2020-11-19_04h34.10.630,Colour_Similarity_Experiment,2020.1.2,Win32,60,5fb5945709dec70f2d595766,,,,,,,,,,,,,,,,,,,,FF,,,,,,,,7,3.315085,,,,,,,,,,,,,,,,,,,,,,,,,,,,1,53,83,1,0,0,response1disk,6,0,0,1,0,0,rectangle,0,0,1,0,0,4,7,"[302,56,222,221,51,170,283,265,149,166,37,31,111,6,317,91,222,200,321,278]",0,0,1,0,0,0,87,86,86,58,1,,,,,,,,,,,,,,,,,,,,,
,,,,,,,,,,,,,,,,,,,,,,,,,,,,,,,,,,,,,,,,,,,5ea5a65ce9c797598273b3ba,5fb5d9861124261d7ebf718c,2020-11-19_04h34.10.630,Colour_Similarity_Experiment,2020.1.2,Win32,60,5fb5945709dec70f2d595766,,,,,,,,,,,,,,,,,,,,PF,,,,,,,,6,2.26722,,,,,,,,,,,,,,,,,,,,,,,,,,,,9,57,43,1,0,0,response1disk,8,-1,2,1,0,0,rectangle,-1,2,1,0,0,4,4,"[302,56,222,221,51,170,283,265,149,166,37,31,111,6,317,91,222,200,321,278]",-1,2,1,0,0,0,88,87,87,67,1,,,,,,,,,,,,,,,,,,,,,
,,,,,,,,,,,,,,,,,,,,,,,,,,,,,,,,,,,,,,,,,,,5ea5a65ce9c797598273b3ba,5fb5d9861124261d7ebf718c,2020-11-19_04h34.10.630,Colour_Similarity_Experiment,2020.1.2,Win32,60,5fb5945709dec70f2d595766,,,,,,,,,,,,,,,,,,,,PF,,,,,,,,5,4.74945,,,,,,,,,,,,,,,,,,,,,,,,,,,,3,73,-51,1,0,0,response3disk,5,1,-1,1,0,0,rectangle,1,-1,1,0,0,4,7,"[302,56,222,221,51,170,283,265,149,166,37,31,111,6,317,91,222,200,321,278]",1,-1,1,0,0,0,89,88,88,66,1,,,,,,,,,,,,,,,,,,,,,
,,,,,,,,,,,,,,,,,,,,,,,,,,,,,,,,,,,,,,,,,,,5ea5a65ce9c797598273b3ba,5fb5d9861124261d7ebf718c,2020-11-19_04h34.10.630,Colour_Similarity_Experiment,2020.1.2,Win32,60,5fb5945709dec70f2d595766,,,,,,,,,,,,,,,,,,,,PF,,,,,,,,5,2.373,,,,,,,,,,,,,,,,,,,,,,,,,,,,1,67,-30,1,0,0,response3disk,9,3,4,1,0,0,rectangle,3,4,1,0,0,4,7,"[302,56,222,221,51,170,283,265,149,166,37,31,111,6,317,91,222,200,321,278]",3,4,1,0,0,0,90,89,89,15,1,,,,,,,,,,,,,,,,,,,,,
,,,,,,,,,,,,,,,,,,,,,,,,,,,,,,,,,,,,,,,,,,,5ea5a65ce9c797598273b3ba,5fb5d9861124261d7ebf718c,2020-11-19_04h34.10.630,Colour_Similarity_Experiment,2020.1.2,Win32,60,5fb5945709dec70f2d595766,,,,,,,,,,,,,,,,,,,,PF,,,,,,,,3,2.169815,,,,,,,,,,,,,,,,,,,,,,,,,,,,2,-25,-59,1,0,0,response5disk,3,14,4,1,0,0,rectangle,39,99,1,0,0,7,7,"[302,56,222,221,51,170,283,265,149,166,37,31,111,6,317,91,222,200,321,278]",2,10,1,0,0,0,91,90,90,69,1,response1disk_3,rectangle,,,,,,,,,,,,,,,,,,,
,,,,,,,,,,,,,,,,,,,,,,,,,,,,,,,,,,,,,,,,,,,5ea5a65ce9c797598273b3ba,5fb5d9861124261d7ebf718c,2020-11-19_04h34.10.630,Colour_Similarity_Experiment,2020.1.2,Win32,60,5fb5945709dec70f2d595766,,,,,,,,,,,,,,,,,,,,PF,,,,,,,,7,4.61322,,,,,,,,,,,,,,,,,,,,,,,,,,,,5,58,82,1,0,0,response1disk,8,-14,-5,1,0,0,rectangle,-14,-5,1,0,0,7,2,"[302,56,222,221,51,170,283,265,149,166,37,31,111,6,317,91,222,200,321,278]",-14,-5,1,0,0,0,92,91,91,149,1,,,,,,,,,,,,,,,,,,,,,
,,,,,,,,,,,,,,,,,,,,,,,,,,,,,,,,,,,,,,,,,,,5ea5a65ce9c797598273b3ba,5fb5d9861124261d7ebf718c,2020-11-19_04h34.10.630,Colour_Similarity_Experiment,2020.1.2,Win32,60,5fb5945709dec70f2d595766,,,,,,,,,,,,,,,,,,,,PF,,,,,,,,6,2.23967,,,,,,,,,,,,,,,,,,,,,,,,,,,,9,65,55,1,0,0,response1disk,2,-3,-6,1,0,0,rectangle,-3,-6,1,0,0,7,1,"[302,56,222,221,51,170,283,265,149,166,37,31,111,6,317,91,222,200,321,278]",-3,-6,1,0,0,0,93,92,92,157,1,,,,,,,,,,,,,,,,,,,,,
,,,,,,,,,,,,,,,,,,,,,,,,,,,,,,,,,,,,,,,,,,,5ea5a65ce9c797598273b3ba,5fb5d9861124261d7ebf718c,2020-11-19_04h34.10.630,Colour_Similarity_Experiment,2020.1.2,Win32,60,5fb5945709dec70f2d595766,,,,,,,,,,,,,,,,,,,,PF,,,,,,,,6,4.431445,,,,,,,,,,,,,,,,,,,,,,,,,,,,5,96,49,1,0,0,response1disk,2,2,1,1,0,0,rectangle,2,1,1,0,0,7,5,"[302,56,222,221,51,170,283,265,149,166,37,31,111,6,317,91,222,200,321,278]",2,1,1,0,0,0,94,93,93,129,1,,,,,,,,,,,,,,,,,,,,,
,,,,,,,,,,,,,,,,,,,,,,,,,,,,,,,,,,,,,,,,,,,5ea5a65ce9c797598273b3ba,5fb5d9861124261d7ebf718c,2020-11-19_04h34.10.630,Colour_Similarity_Experiment,2020.1.2,Win32,60,5fb5945709dec70f2d595766,,,,,,,,,,,,,,,,,,,,FF,,,,,,,,7,4.904225,,,,,,,,,,,,,,,,,,,,,,,,,,,,5,65,83,1,0,0,response1disk,9,-8,-2,1,0,0,rectangle,-8,-2,1,0,0,7,4,"[302,56,222,221,51,170,283,265,149,166,37,31,111,6,317,91,222,200,321,278]",-8,-2,1,0,0,0,95,94,94,61,1,,,,,,,,,,,,,,,,,,,,,
,,,,,,,,,,,,,,,,,,,,,,,,,,,,,,,,,,,,,,,,,,,5ea5a65ce9c797598273b3ba,5fb5d9861124261d7ebf718c,2020-11-19_04h34.10.630,Colour_Similarity_Experiment,2020.1.2,Win32,60,5fb5945709dec70f2d595766,,,,,,,,,,,,,,,,,,,,FF,,,,,,,,0,3.04,,,,,,,,,,,,,,,,,,,,,,,,,,,,6,-44,76,1,0,0,response7disk,6,-3,1,1,0,0,rectangle,-3,1,1,0,0,7,5,"[302,56,222,221,51,170,283,265,149,166,37,31,111,6,317,91,222,200,321,278]",-3,1,1,0,0,0,96,95,95,91,1,,,,,,,,,,,,,,,,,,,,,
,,,,,,,,,,,,,,,,,,,,,,,,,,,,,,,,,,,,,,,,,,,5ea5a65ce9c797598273b3ba,5fb5d9861124261d7ebf718c,2020-11-19_04h34.10.630,Colour_Similarity_Experiment,2020.1.2,Win32,60,5fb5945709dec70f2d595766,,,,,,,,,,,,,,,,,,,,FF,,,,,,,,4,2.9867,,,,,,,,,,,,,,,,,,,,,,,,,,,,2,27,-85,1,0,0,response3disk,3,1,-2,1,0,0,rectangle,1,-2,1,0,0,7,2,"[302,56,222,221,51,170,283,265,149,166,37,31,111,6,317,91,222,200,321,278]",1,-2,1,0,0,0,97,96,96,104,1,,,,,,,,,,,,,,,,,,,,,
,,,,,,,,,,,,,,,,,,,,,,,,,,,,,,,,,,,,,,,,,,,5ea5a65ce9c797598273b3ba,5fb5d9861124261d7ebf718c,2020-11-19_04h34.10.630,Colour_Similarity_Experiment,2020.1.2,Win32,60,5fb5945709dec70f2d595766,,,,,,,,,,,,,,,,,,,,FF,,,,,,,,5,6.207965,,,,,,,,,,,,,,,,,,,,,,,,,,,,6,70,-27,1,0,0,response3disk,4,10,3,1,0,0,rectangle,10,3,1,0,0,7,7,"[302,56,222,221,51,170,283,265,149,166,37,31,111,6,317,91,222,200,321,278]",10,3,1,0,0,0,98,97,97,56,1,,,,,,,,,,,,,,,,,,,,,
,,,,,,,,,,,,,,,,,,,,,,,,,,,,,,,,,,,,,,,,,,,5ea5a65ce9c797598273b3ba,5fb5d9861124261d7ebf718c,2020-11-19_04h34.10.630,Colour_Similarity_Experiment,2020.1.2,Win32,60,5fb5945709dec70f2d595766,,,,,,,,,,,,,,,,,,,,PF,,,,,,,,6,2.64051,,,,,,,,,,,,,,,,,,,,,,,,,,,,1,71,36,1,0,0,response1disk,2,-3,-5,1,0,0,rectangle,-3,-5,1,0,0,7,2,"[302,56,222,221,51,170,283,265,149,166,37,31,111,6,317,91,222,200,321,278]",-3,-5,1,0,0,0,99,98,98,24,1,,,,,,,,,,,,,,,,,,,,,
,,,,,,,,,,,,,,,,,,,,,,,,,,,,,,,,,,,,,,,,,,,5ea5a65ce9c797598273b3ba,5fb5d9861124261d7ebf718c,2020-11-19_04h34.10.630,Colour_Similarity_Experiment,2020.1.2,Win32,60,5fb5945709dec70f2d595766,,,,,,,,,,,,,,,,,,,,PF,,,,,,,,6,6.789235,,,,,,,,,,,,,,,,,,,,,,,,,,,,7,51,43,1,0,0,response1disk,3,1,-1,1,0,0,rectangle,1,-1,1,0,0,7,5,"[302,56,222,221,51,170,283,265,149,166,37,31,111,6,317,91,222,200,321,278]",1,-1,1,0,0,0,100,99,99,81,1,,,,,,,,,,,,,,,,,,,,,
,,,,,,,,,,,,,,,,,,,,,,,,,,,,,,,,,,,,,,,,,,,5ea5a65ce9c797598273b3ba,5fb5d9861124261d7ebf718c,2020-11-19_04h34.10.630,Colour_Similarity_Experiment,2020.1.2,Win32,60,5fb5945709dec70f2d595766,,,,,,,,,,,,,,,,,,,,PF,,,,,,,,3,4.85531,,,,,,,,,,,,,,,,,,,,,,,,,,,,5,-52,-60,1,0,0,response5disk,4,3,9,1,0,0,rectangle,3,9,1,0,0,7,5,"[302,56,222,221,51,170,283,265,149,166,37,31,111,6,317,91,222,200,321,278]",3,9,1,0,0,0,101,100,100,54,1,,,,,,,,,,,,,,,,,,,,,
,,,,,,,,,,,,,,,,,,,,,,,,,,,,,,,,,,,,,,,,,,,5ea5a65ce9c797598273b3ba,5fb5d9861124261d7ebf718c,2020-11-19_04h34.10.630,Colour_Similarity_Experiment,2020.1.2,Win32,60,5fb5945709dec70f2d595766,,,,,,,,,,,,,,,,,,,,FF,,,,,,,,7,2.72847,,,,,,,,,,,,,,,,,,,,,,,,,,,,5,28,69,1,0,0,response1disk,8,-8,-2,1,0,0,rectangle,-8,-2,1,0,0,7,4,"[302,56,222,221,51,170,283,265,149,166,37,31,111,6,317,91,222,200,321,278]",-8,-2,1,0,0,0,102,101,101,16,1,,,,,,,,,,,,,,,,,,,,,
,,,,,,,,,,,,,,,,,,,,,,,,,,,,,,,,,,,,,,,,,,,5ea5a65ce9c797598273b3ba,5fb5d9861124261d7ebf718c,2020-11-19_04h34.10.630,Colour_Similarity_Experiment,2020.1.2,Win32,60,5fb5945709dec70f2d595766,,,,,,,,,,,,,,,,,,,,FF,,,,,,,,6,4.77823,,,,,,,,,,,,,,,,,,,,,,,,,,,,8,59,56,1,0,0,response1disk,7,-4,10,1,0,0,rectangle,-4,10,1,0,0,7,7,"[302,56,222,221,51,170,283,265,149,166,37,31,111,6,317,91,222,200,321,278]",-4,10,1,0,0,0,103,102,102,86,1,,,,,,,,,,,,,,,,,,,,,
,,,,,,,,,,,,,,,,,,,,,,,,,,,,,,,,,,,,,,,,,,,5ea5a65ce9c797598273b3ba,5fb5d9861124261d7ebf718c,2020-11-19_04h34.10.630,Colour_Similarity_Experiment,2020.1.2,Win32,60,5fb5945709dec70f2d595766,,,,,,,,,,,,,,,,,,,,FF,,,,,,,,4,3.18119,,,,,,,,,,,,,,,,,,,,,,,,,,,,6,40,-68,1,0,0,response3disk,5,-8,1,1,0,0,rectangle,-8,1,1,0,0,7,7,"[302,56,222,221,51,170,283,265,149,166,37,31,111,6,317,91,222,200,321,278]",-8,1,1,0,0,0,104,103,103,126,1,,,,,,,,,,,,,,,,,,,,,
,,,,,,,,,,,,,,,,,,,,,,,,,,,,,,,,,,,,,,,,,,,5ea5a65ce9c797598273b3ba,5fb5d9861124261d7ebf718c,2020-11-19_04h34.10.630,Colour_Similarity_Experiment,2020.1.2,Win32,60,5fb5945709dec70f2d595766,,,,,,,,,,,,,,,,,,,,FF,,,,,,,,0,2.355735,,,,,,,,,,,,,,,,,,,,,,,,,,,,5,-43,65,1,0,0,response7disk,5,-6,3,1,0,0,rectangle,-6,3,1,0,0,7,7,"[302,56,222,221,51,170,283,265,149,166,37,31,111,6,317,91,222,200,321,278]",-6,3,1,0,0,0,105,104,104,19,1,,,,,,,,,,,,,,,,,,,,,
,,,,,,,,,,,,,,,,,,,,,,,,,,,,,,,,,,,,,,,,,,,5ea5a65ce9c797598273b3ba,5fb5d9861124261d7ebf718c,2020-11-19_04h34.10.630,Colour_Similarity_Experiment,2020.1.2,Win32,60,5fb5945709dec70f2d595766,,,,,,,,,,,,,,,,,,,,FF,,,,,,,,6,2.54238,,,,,,,,,,,,,,,,,,,,,,,,,,,,2,77,66,1,0,0,response1disk,8,-7,-1,1,0,0,rectangle,-7,-1,1,0,0,7,2,"[302,56,222,221,51,170,283,265,149,166,37,31,111,6,317,91,222,200,321,278]",-7,-1,1,0,0,0,106,105,105,62,1,,,,,,,,,,,,,,,,,,,,,
,,,,,,,,,,,,,,,,,,,,,,,,,,,,,,,,,,,,,,,,,,,5ea5a65ce9c797598273b3ba,5fb5d9861124261d7ebf718c,2020-11-19_04h34.10.630,Colour_Similarity_Experiment,2020.1.2,Win32,60,5fb5945709dec70f2d595766,,,,,,,,,,,,,,,,,,,,PF,,,,,,,,5,2.62857,,,,,,,,,,,,,,,,,,,,,,,,,,,,6,48,-21,1,0,0,response3disk,3,-13,11,1,0,0,rectangle,-13,11,1,0,0,7,1,"[302,56,222,221,51,170,283,265,149,166,37,31,111,6,317,91,222,200,321,278]",-13,11,1,0,0,0,107,106,106,26,1,,,,,,,,,,,,,,,,,,,,,
,,,,,,,,,,,,,,,,,,,,,,,,,,,,,,,,,,,,,,,,,,,5ea5a65ce9c797598273b3ba,5fb5d9861124261d7ebf718c,2020-11-19_04h34.10.630,Colour_Similarity_Experiment,2020.1.2,Win32,60,5fb5945709dec70f2d595766,,,,,,,,,,,,,,,,,,,,PF,,,,,,,,1,3.26164,,,,,,,,,,,,,,,,,,,,,,,,,,,,8,-65,23,1,0,0,response7disk,8,-2,3,1,0,0,rectangle,-2,3,1,0,0,7,3,"[302,56,222,221,51,170,283,265,149,166,37,31,111,6,317,91,222,200,321,278]",-2,3,1,0,0,0,108,107,107,153,1,,,,,,,,,,,,,,,,,,,,,
,,,,,,,,,,,,,,,,,,,,,,,,,,,,,,,,,,,,,,,,,,,5ea5a65ce9c797598273b3ba,5fb5d9861124261d7ebf718c,2020-11-19_04h34.10.630,Colour_Similarity_Experiment,2020.1.2,Win32,60,5fb5945709dec70f2d595766,,,,,,,,,,,,,,,,,,,,FF,,,,,,,,2,2.433365,,,,,,,,,,,,,,,,,,,,,,,,,,,,5,-52,-34,1,0,0,response5disk,6,1,1,1,0,0,rectangle,1,1,1,0,0,7,4,"[302,56,222,221,51,170,283,265,149,166,37,31,111,6,317,91,222,200,321,278]",1,1,1,0,0,0,109,108,108,12,1,,,,,,,,,,,,,,,,,,,,,
,,,,,,,,,,,,,,,,,,,,,,,,,,,,,,,,,,,,,,,,,,,5ea5a65ce9c797598273b3ba,5fb5d9861124261d7ebf718c,2020-11-19_04h34.10.630,Colour_Similarity_Experiment,2020.1.2,Win32,60,5fb5945709dec70f2d595766,,,,,,,,,,,,,,,,,,,,FF,,,,,,,,6,5.028695,,,,,,,,,,,,,,,,,,,,,,,,,,,,4,55,20,1,0,0,response1disk,6,-4,-2,1,0,0,rectangle,-4,-2,1,0,0,7,7,"[302,56,222,221,51,170,283,265,149,166,37,31,111,6,317,91,222,200,321,278]",-4,-2,1,0,0,0,110,109,109,122,1,,,,,,,,,,,,,,,,,,,,,
,,,,,,,,,,,,,,,,,,,,,,,,,,,,,,,,,,,,,,,,,,,5ea5a65ce9c797598273b3ba,5fb5d9861124261d7ebf718c,2020-11-19_04h34.10.630,Colour_Similarity_Experiment,2020.1.2,Win32,60,5fb5945709dec70f2d595766,,,,,,,,,,,,,,,,,,,,FF,,,,,,,,5,3.981045,,,,,,,,,,,,,,,,,,,,,,,,,,,,9,74,-24,1,0,0,response3disk,1,-5,3,1,0,0,rectangle,45,74,1,0,0,7,7,"[302,56,222,221,51,170,283,265,149,166,37,31,111,6,317,91,222,200,321,278]",-5,-4,1,0,0,0,111,110,110,111,1,response1disk_3,rectangle,,,,,,,,,,,,,,,,,,,
,,,,,,,,,,,,,,,,,,,,,,,,,,,,,,,,,,,,,,,,,,,5ea5a65ce9c797598273b3ba,5fb5d9861124261d7ebf718c,2020-11-19_04h34.10.630,Colour_Similarity_Experiment,2020.1.2,Win32,60,5fb5945709dec70f2d595766,,,,,,,,,,,,,,,,,,,,FF,,,,,,,,6,5.26313,,,,,,,,,,,,,,,,,,,,,,,,,,,,7,61,27,1,0,0,response1disk,3,5,6,1,0,0,rectangle,5,6,1,0,0,7,4,"[302,56,222,221,51,170,283,265,149,166,37,31,111,6,317,91,222,200,321,278]",5,6,1,0,0,0,112,111,111,73,1,,,,,,,,,,,,,,,,,,,,,
,,,,,,,,,,,,,,,,,,,,,,,,,,,,,,,,,,,,,,,,,,,5ea5a65ce9c797598273b3ba,5fb5d9861124261d7ebf718c,2020-11-19_04h34.10.630,Colour_Similarity_Experiment,2020.1.2,Win32,60,5fb5945709dec70f2d595766,,,,,,,,,,,,,,,,,,,,PF,,,,,,,,5,2.15979,,,,,,,,,,,,,,,,,,,,,,,,,,,,3,63,-26,1,0,0,response3disk,2,-15,7,1,0,0,rectangle,-15,7,1,0,0,7,7,"[302,56,222,221,51,170,283,265,149,166,37,31,111,6,317,91,222,200,321,278]",-15,7,1,0,0,0,113,112,112,36,1,,,,,,,,,,,,,,,,,,,,,
,,,,,,,,,,,,,,,,,,,,,,,,,,,,,,,,,,,,,,,,,,,5ea5a65ce9c797598273b3ba,5fb5d9861124261d7ebf718c,2020-11-19_04h34.10.630,Colour_Similarity_Experiment,2020.1.2,Win32,60,5fb5945709dec70f2d595766,,,,,,,,,,,,,,,,,,,,PF,,,,,,,,3,5.387725,,,,,,,,,,,,,,,,,,,,,,,,,,,,7,-21,-87,1,0,0,response5disk,6,-6,8,1,0,0,rectangle,-6,8,1,0,0,7,7,"[302,56,222,221,51,170,283,265,149,166,37,31,111,6,317,91,222,200,321,278]",-6,8,1,0,0,0,114,113,113,29,1,,,,,,,,,,,,,,,,,,,,,
,,,,,,,,,,,,,,,,,,,,,,,,,,,,,,,,,,,,,,,,,,,5ea5a65ce9c797598273b3ba,5fb5d9861124261d7ebf718c,2020-11-19_04h34.10.630,Colour_Similarity_Experiment,2020.1.2,Win32,60,5fb5945709dec70f2d595766,,,,,,,,,,,,,,,,,,,,FF,,,,,,,,7,4.704205,,,,,,,,,,,,,,,,,,,,,,,,,,,,6,42,75,1,0,0,response1disk,9,5,-1,1,0,0,rectangle,5,-1,1,0,0,7,3,"[302,56,222,221,51,170,283,265,149,166,37,31,111,6,317,91,222,200,321,278]",5,-1,1,0,0,0,115,114,114,160,1,,,,,,,,,,,,,,,,,,,,,
,,,,,,,,,,,,,,,,,,,,,,,,,,,,,,,,,,,,,,,,,,,5ea5a65ce9c797598273b3ba,5fb5d9861124261d7ebf718c,2020-11-19_04h34.10.630,Colour_Similarity_Experiment,2020.1.2,Win32,60,5fb5945709dec70f2d595766,,,,,,,,,,,,,,,,,,,,FF,,,,,,,,6,2.369515,,,,,,,,,,,,,,,,,,,,,,,,,,,,8,56,44,1,0,0,response1disk,2,-9,5,1,0,0,rectangle,-9,5,1,0,0,7,7,"[302,56,222,221,51,170,283,265,149,166,37,31,111,6,317,91,222,200,321,278]",-9,5,1,0,0,0,116,115,115,22,1,,,,,,,,,,,,,,,,,,,,,
,,,,,,,,,,,,,,,,,,,,,,,,,,,,,,,,,,,,,,,,,,,5ea5a65ce9c797598273b3ba,5fb5d9861124261d7ebf718c,2020-11-19_04h34.10.630,Colour_Similarity_Experiment,2020.1.2,Win32,60,5fb5945709dec70f2d595766,,,,,,,,,,,,,,,,,,,,FF,,,,,,,,6,2.379225,,,,,,,,,,,,,,,,,,,,,,,,,,,,9,68,39,1,0,0,response1disk,8,-1,0,1,0,0,rectangle,-1,0,1,0,0,7,2,"[302,56,222,221,51,170,283,265,149,166,37,31,111,6,317,91,222,200,321,278]",-1,0,1,0,0,0,117,116,116,6,1,,,,,,,,,,,,,,,,,,,,,
,,,,,,,,,,,,,,,,,,,,,,,,,,,,,,,,,,,,,,,,,,,5ea5a65ce9c797598273b3ba,5fb5d9861124261d7ebf718c,2020-11-19_04h34.10.630,Colour_Similarity_Experiment,2020.1.2,Win32,60,5fb5945709dec70f2d595766,,,,,,,,,,,,,,,,,,,,PF,,,,,,,,6,2.323815,,,,,,,,,,,,,,,,,,,,,,,,,,,,1,69,46,1,0,0,response1disk,7,-3,-9,1,0,0,rectangle,-3,-9,1,0,0,7,1,"[302,56,222,221,51,170,283,265,149,166,37,31,111,6,317,91,222,200,321,278]",-3,-9,1,0,0,0,118,117,117,150,1,,,,,,,,,,,,,,,,,,,,,
,,,,,,,,,,,,,,,,,,,,,,,,,,,,,,,,,,,,,,,,,,,5ea5a65ce9c797598273b3ba,5fb5d9861124261d7ebf718c,2020-11-19_04h34.10.630,Colour_Similarity_Experiment,2020.1.2,Win32,60,5fb5945709dec70f2d595766,,,,,,,,,,,,,,,,,,,,FF,,,,,,,,6,1.661605,,,,,,,,,,,,,,,,,,,,,,,,,,,,9,53,39,1,0,0,response1disk,2,-6,1,1,0,0,rectangle,-6,1,1,0,0,7,6,"[302,56,222,221,51,170,283,265,149,166,37,31,111,6,317,91,222,200,321,278]",-6,1,1,0,0,0,119,118,118,11,1,,,,,,,,,,,,,,,,,,,,,
,,,,,,,,,,,,,,,,,,,,,,,,,,,,,,,,,,,,,,,,,,,5ea5a65ce9c797598273b3ba,5fb5d9861124261d7ebf718c,2020-11-19_04h34.10.630,Colour_Similarity_Experiment,2020.1.2,Win32,60,5fb5945709dec70f2d595766,,,,,,,,,,,,,,,,,,,,PF,,,,,,,,6,2.402005,,,,,,,,,,,,,,,,,,,,,,,,,,,,9,50,40,1,0,0,response1disk,6,-19,-1,1,0,0,rectangle,-19,-1,1,0,0,7,5,"[302,56,222,221,51,170,283,265,149,166,37,31,111,6,317,91,222,200,321,278]",-19,-1,1,0,0,0,120,119,119,148,1,,,,,,,,,,,,,,,,,,,,,
,,,,,,,,,,,,,,,,,,,,,,,,,,,,,,,,,,,,,,,,,,,5ea5a65ce9c797598273b3ba,5fb5d9861124261d7ebf718c,2020-11-19_04h34.10.630,Colour_Similarity_Experiment,2020.1.2,Win32,60,5fb5945709dec70f2d595766,,,,,,,,,,,,,,,,,,,,FF,,,,,,,,6,3.19607,,,,,,,,,,,,,,,,,,,,,,,,,,,,3,59,35,1,0,0,response1disk,2,-8,7,1,0,0,rectangle,-8,7,1,0,0,7,3,"[302,56,222,221,51,170,283,265,149,166,37,31,111,6,317,91,222,200,321,278]",-8,7,1,0,0,0,121,120,120,93,1,,,,,,,,,,,,,,,,,,,,,
,,,,,,,,,,,,,,,,,,,,,,,,,,,,,,,,,,,,,,,,,,,5ea5a65ce9c797598273b3ba,5fb5d9861124261d7ebf718c,2020-11-19_04h34.10.630,Colour_Similarity_Experiment,2020.1.2,Win32,60,5fb5945709dec70f2d595766,,,,,,,,,,,,,,,,,,,,PF,,,,,,,,2,4.978085,,,,,,,,,,,,,,,,,,,,,,,,,,,,4,-87,-48,1,0,0,response5disk,4,2,9,1,0,0,rectangle,2,9,1,0,0,7,4,"[302,56,222,221,51,170,283,265,149,166,37,31,111,6,317,91,222,200,321,278]",2,9,1,0,0,0,122,121,121,70,1,,,,,,,,,,,,,,,,,,,,,
,,,,,,,,,,,,,,,,,,,,,,,,,,,,,,,,,,,,,,,,,,,5ea5a65ce9c797598273b3ba,5fb5d9861124261d7ebf718c,2020-11-19_04h34.10.630,Colour_Similarity_Experiment,2020.1.2,Win32,60,5fb5945709dec70f2d595766,,,,,,,,,,,,,,,,,,,,PF,,,,,,,,6,3.09961,,,,,,,,,,,,,,,,,,,,,,,,,,,,8,66,26,1,0,0,response1disk,5,-3,1,1,0,0,rectangle,-3,1,1,0,0,7,1,"[302,56,222,221,51,170,283,265,149,166,37,31,111,6,317,91,222,200,321,278]",-3,1,1,0,0,0,123,122,122,98,1,,,,,,,,,,,,,,,,,,,,,
,,,,,,,,,,,,,,,,,,,,,,,,,,,,,,,,,,,,,,,,,,,5ea5a65ce9c797598273b3ba,5fb5d9861124261d7ebf718c,2020-11-19_04h34.10.630,Colour_Similarity_Experiment,2020.1.2,Win32,60,5fb5945709dec70f2d595766,,,,,,,,,,,,,,,,,,,,PF,,,,,,,,5,3.25004,,,,,,,,,,,,,,,,,,,,,,,,,,,,5,52,-38,1,0,0,response3disk,3,-8,5,1,0,0,rectangle,-8,5,1,0,0,7,4,"[302,56,222,221,51,170,283,265,149,166,37,31,111,6,317,91,222,200,321,278]",-8,5,1,0,0,0,124,123,123,109,1,,,,,,,,,,,,,,,,,,,,,
,,,,,,,,,,,,,,,,,,,,,,,,,,,,,,,,,,,,,,,,,,,5ea5a65ce9c797598273b3ba,5fb5d9861124261d7ebf718c,2020-11-19_04h34.10.630,Colour_Similarity_Experiment,2020.1.2,Win32,60,5fb5945709dec70f2d595766,,,,,,,,,,,,,,,,,,,,FF,,,,,,,,1,2.759795,,,,,,,,,,,,,,,,,,,,,,,,,,,,8,-69,24,1,0,0,response7disk,8,-11,-6,1,0,0,rectangle,-11,-6,1,0,0,7,1,"[302,56,222,221,51,170,283,265,149,166,37,31,111,6,317,91,222,200,321,278]",-11,-6,1,0,0,0,125,124,124,48,1,,,,,,,,,,,,,,,,,,,,,
,,,,,,,,,,,,,,,,,,,,,,,,,,,,,,,,,,,,,,,,,,,5ea5a65ce9c797598273b3ba,5fb5d9861124261d7ebf718c,2020-11-19_04h34.10.630,Colour_Similarity_Experiment,2020.1.2,Win32,60,5fb5945709dec70f2d595766,,,,,,,,,,,,,,,,,,,,PF,,,,,,,,3,2.607695,,,,,,,,,,,,,,,,,,,,,,,,,,,,6,-26,-49,1,0,0,response5disk,5,0,1,1,0,0,rectangle,0,1,1,0,0,7,0,"[302,56,222,221,51,170,283,265,149,166,37,31,111,6,317,91,222,200,321,278]",0,1,1,0,0,0,126,125,125,59,1,,,,,,,,,,,,,,,,,,,,,
,,,,,,,,,,,,,,,,,,,,,,,,,,,,,,,,,,,,,,,,,,,5ea5a65ce9c797598273b3ba,5fb5d9861124261d7ebf718c,2020-11-19_04h34.10.630,Colour_Similarity_Experiment,2020.1.2,Win32,60,5fb5945709dec70f2d595766,,,,,,,,,,,,,,,,,,,,FF,,,,,,,,0,2.202255,,,,,,,,,,,,,,,,,,,,,,,,,,,,7,-45,62,1,0,0,response7disk,7,-9,4,1,0,0,rectangle,-9,4,1,0,0,7,1,"[302,56,222,221,51,170,283,265,149,166,37,31,111,6,317,91,222,200,321,278]",-9,4,1,0,0,0,127,126,126,34,1,,,,,,,,,,,,,,,,,,,,,
,,,,,,,,,,,,,,,,,,,,,,,,,,,,,,,,,,,,,,,,,,,5ea5a65ce9c797598273b3ba,5fb5d9861124261d7ebf718c,2020-11-19_04h34.10.630,Colour_Similarity_Experiment,2020.1.2,Win32,60,5fb5945709dec70f2d595766,,,,,,,,,,,,,,,,,,,,FF,,,,,,,,7,2.20332,,,,,,,,,,,,,,,,,,,,,,,,,,,,4,42,70,1,0,0,response1disk,1,-10,8,1,0,0,rectangle,-10,8,1,0,0,7,1,"[302,56,222,221,51,170,283,265,149,166,37,31,111,6,317,91,222,200,321,278]",-10,8,1,0,0,0,128,127,127,102,1,,,,,,,,,,,,,,,,,,,,,
,,,,,,,,,,,,,,,,,,,,,,,,,,,,,,,,,,,,,,,,,,,5ea5a65ce9c797598273b3ba,5fb5d9861124261d7ebf718c,2020-11-19_04h34.10.630,Colour_Similarity_Experiment,2020.1.2,Win32,60,5fb5945709dec70f2d595766,,,,,,,,,,,,,,,,,,,,FF,,,,,,,,4,5.80259,,,,,,,,,,,,,,,,,,,,,,,,,,,,4,30,-69,1,0,0,response3disk,3,4,3,1,0,0,rectangle,4,3,1,0,0,7,5,"[302,56,222,221,51,170,283,265,149,166,37,31,111,6,317,91,222,200,321,278]",4,3,1,0,0,0,129,128,128,77,1,,,,,,,,,,,,,,,,,,,,,
,,,,,,,,,,,,,,,,,,,,,,,,,,,,,,,,,,,,,,,,,,,5ea5a65ce9c797598273b3ba,5fb5d9861124261d7ebf718c,2020-11-19_04h34.10.630,Colour_Similarity_Experiment,2020.1.2,Win32,60,5fb5945709dec70f2d595766,,,,,,,,,,,,,,,,,,,,FF,,,,,,,,1,2.50549,,,,,,,,,,,,,,,,,,,,,,,,,,,,1,-85,35,1,0,0,response7disk,1,2,5,1,0,0,rectangle,2,5,1,0,0,7,3,"[302,56,222,221,51,170,283,265,149,166,37,31,111,6,317,91,222,200,321,278]",2,5,1,0,0,0,130,129,129,151,1,,,,,,,,,,,,,,,,,,,,,
,,,,,,,,,,,,,,,,,,,,,,,,,,,,,,,,,,,,,,,,,,,5ea5a65ce9c797598273b3ba,5fb5d9861124261d7ebf718c,2020-11-19_04h34.10.630,Colour_Similarity_Experiment,2020.1.2,Win32,60,5fb5945709dec70f2d595766,,,,,,,,,,,,,,,,,,,,PF,,,,,,,,7,6.235495,,,,,,,,,,,,,,,,,,,,,,,,,,,,3,47,53,1,0,0,response1disk,6,5,5,1,0,0,rectangle,5,5,1,0,0,7,2,"[302,56,222,221,51,170,283,265,149,166,37,31,111,6,317,91,222,200,321,278]",5,5,1,0,0,0,131,130,130,47,1,,,,,,,,,,,,,,,,,,,,,
,,,,,,,,,,,,,,,,,,,,,,,,,,,,,,,,,,,,,,,,,,,5ea5a65ce9c797598273b3ba,5fb5d9861124261d7ebf718c,2020-11-19_04h34.10.630,Colour_Similarity_Experiment,2020.1.2,Win32,60,5fb5945709dec70f2d595766,,,,,,,,,,,,,,,,,,,,PF,,,,,,,,7,5.158595,,,,,,,,,,,,,,,,,,,,,,,,,,,,9,44,67,1,0,0,response1disk,7,9,9,1,0,0,rectangle,9,9,1,0,0,7,1,"[302,56,222,221,51,170,283,265,149,166,37,31,111,6,317,91,222,200,321,278]",9,9,1,0,0,0,132,131,131,121,1,,,,,,,,,,,,,,,,,,,,,
,,,,,,,,,,,,,,,,,,,,,,,,,,,,,,,,,,,,,,,,,,,5ea5a65ce9c797598273b3ba,5fb5d9861124261d7ebf718c,2020-11-19_04h34.10.630,Colour_Similarity_Experiment,2020.1.2,Win32,60,5fb5945709dec70f2d595766,,,,,,,,,,,,,,,,,,,,PF,,,,,,,,7,3.70232,,,,,,,,,,,,,,,,,,,,,,,,,,,,6,44,71,1,0,0,response1disk,1,-3,1,1,0,0,rectangle,-3,1,1,0,0,7,5,"[302,56,222,221,51,170,283,265,149,166,37,31,111,6,317,91,222,200,321,278]",-3,1,1,0,0,0,133,132,132,46,1,,,,,,,,,,,,,,,,,,,,,
,,,,,,,,,,,,,,,,,,,,,,,,,,,,,,,,,,,,,,,,,,,5ea5a65ce9c797598273b3ba,5fb5d9861124261d7ebf718c,2020-11-19_04h34.10.630,Colour_Similarity_Experiment,2020.1.2,Win32,60,5fb5945709dec70f2d595766,,,,,,,,,,,,,,,,,,,,PF,,,,,,,,7,18.3607,,,,,,,,,,,,,,,,,,,,,,,,,,,,4,38,85,1,0,0,response1disk,1,-3,-2,1,0,0,rectangle,-3,-2,1,0,0,7,5,"[302,56,222,221,51,170,283,265,149,166,37,31,111,6,317,91,222,200,321,278]",-3,-2,1,0,0,0,134,133,133,115,1,,,,,,,,,,,,,,,,,,,,,
,,,,,,,,,,,,,,,,,,,,,,,,,,,,,,,,,,,,,,,,,,,5ea5a65ce9c797598273b3ba,5fb5d9861124261d7ebf718c,2020-11-19_04h34.10.630,Colour_Similarity_Experiment,2020.1.2,Win32,60,5fb5945709dec70f2d595766,,,,,,,,,,,,,,,,,,,,FF,,,,,,,,6,3.05045,,,,,,,,,,,,,,,,,,,,,,,,,,,,4,73,61,1,0,0,response1disk,2,-5,9,1,0,0,rectangle,-5,9,1,0,0,7,0,"[302,56,222,221,51,170,283,265,149,166,37,31,111,6,317,91,222,200,321,278]",-5,9,1,0,0,0,135,134,134,13,1,,,,,,,,,,,,,,,,,,,,,
,,,,,,,,,,,,,,,,,,,,,,,,,,,,,,,,,,,,,,,,,,,5ea5a65ce9c797598273b3ba,5fb5d9861124261d7ebf718c,2020-11-19_04h34.10.630,Colour_Similarity_Experiment,2020.1.2,Win32,60,5fb5945709dec70f2d595766,,,,,,,,,,,,,,,,,,,,PF,,,,,,,,6,2.19711,,,,,,,,,,,,,,,,,,,,,,,,,,,,4,66,50,1,0,0,response1disk,6,2,-1,1,0,0,rectangle,2,-1,1,0,0,7,1,"[302,56,222,221,51,170,283,265,149,166,37,31,111,6,317,91,222,200,321,278]",2,-1,1,0,0,0,136,135,135,120,1,,,,,,,,,,,,,,,,,,,,,
,,,,,,,,,,,,,,,,,,,,,,,,,,,,,,,,,,,,,,,,,,,5ea5a65ce9c797598273b3ba,5fb5d9861124261d7ebf718c,2020-11-19_04h34.10.630,Colour_Similarity_Experiment,2020.1.2,Win32,60,5fb5945709dec70f2d595766,,,,,,,,,,,,,,,,,,,,FF,,,,,,,,6,2.488515,,,,,,,,,,,,,,,,,,,,,,,,,,,,6,56,39,1,0,0,response1disk,2,-1,3,1,0,0,rectangle,-1,3,1,0,0,7,0,"[302,56,222,221,51,170,283,265,149,166,37,31,111,6,317,91,222,200,321,278]",-1,3,1,0,0,0,137,136,136,112,1,,,,,,,,,,,,,,,,,,,,,
,,,,,,,,,,,,,,,,,,,,,,,,,,,,,,,,,,,,,,,,,,,5ea5a65ce9c797598273b3ba,5fb5d9861124261d7ebf718c,2020-11-19_04h34.10.630,Colour_Similarity_Experiment,2020.1.2,Win32,60,5fb5945709dec70f2d595766,,,,,,,,,,,,,,,,,,,,PF,,,,,,,,6,10.427835,,,,,,,,,,,,,,,,,,,,,,,,,,,,3,64,53,1,0,0,response1disk,9,-3,2,1,0,0,rectangle,-3,2,1,0,0,7,4,"[302,56,222,221,51,170,283,265,149,166,37,31,111,6,317,91,222,200,321,278]",-3,2,1,0,0,0,138,137,137,79,1,,,,,,,,,,,,,,,,,,,,,
,,,,,,,,,,,,,,,,,,,,,,,,,,,,,,,,,,,,,,,,,,,5ea5a65ce9c797598273b3ba,5fb5d9861124261d7ebf718c,2020-11-19_04h34.10.630,Colour_Similarity_Experiment,2020.1.2,Win32,60,5fb5945709dec70f2d595766,,,,,,,,,,,,,,,,,,,,FF,,,,,,,,7,4.26173,,,,,,,,,,,,,,,,,,,,,,,,,,,,1,44,76,1,0,0,response1disk,5,-12,5,1,0,0,rectangle,-12,5,1,0,0,7,4,"[302,56,222,221,51,170,283,265,149,166,37,31,111,6,317,91,222,200,321,278]",-12,5,1,0,0,0,139,138,138,82,1,,,,,,,,,,,,,,,,,,,,,
,,,,,,,,,,,,,,,,,,,,,,,,,,,,,,,,,,,,,,,,,,,5ea5a65ce9c797598273b3ba,5fb5d9861124261d7ebf718c,2020-11-19_04h34.10.630,Colour_Similarity_Experiment,2020.1.2,Win32,60,5fb5945709dec70f2d595766,,,,,,,,,,,,,,,,,,,,FF,,,,,,,,7,1.77718,,,,,,,,,,,,,,,,,,,,,,,,,,,,1,41,76,1,0,0,response1disk,7,-5,5,1,0,0,rectangle,-5,5,1,0,0,7,0,"[302,56,222,221,51,170,283,265,149,166,37,31,111,6,317,91,222,200,321,278]",-5,5,1,0,0,0,140,139,139,137,1,,,,,,,,,,,,,,,,,,,,,
,,,,,,,,,,,,,,,,,,,,,,,,,,,,,,,,,,,,,,,,,,,5ea5a65ce9c797598273b3ba,5fb5d9861124261d7ebf718c,2020-11-19_04h34.10.630,Colour_Similarity_Experiment,2020.1.2,Win32,60,5fb5945709dec70f2d595766,,,,,,,,,,,,,,,,,,,,PF,,,,,,,,5,4.593885,,,,,,,,,,,,,,,,,,,,,,,,,,,,4,45,-26,1,0,0,response3disk,7,-6,-5,1,0,0,rectangle,-6,-5,1,0,0,7,5,"[302,56,222,221,51,170,283,265,149,166,37,31,111,6,317,91,222,200,321,278]",-6,-5,1,0,0,0,141,140,140,38,1,,,,,,,,,,,,,,,,,,,,,
,,,,,,,,,,,,,,,,,,,,,,,,,,,,,,,,,,,,,,,,,,,5ea5a65ce9c797598273b3ba,5fb5d9861124261d7ebf718c,2020-11-19_04h34.10.630,Colour_Similarity_Experiment,2020.1.2,Win32,60,5fb5945709dec70f2d595766,,,,,,,,,,,,,,,,,,,,FF,,,,,,,,7,7.643565,,,,,,,,,,,,,,,,,,,,,,,,,,,,6,43,75,1,0,0,response1disk,1,-6,-3,1,0,0,rectangle,-6,-3,1,0,0,7,7,"[302,56,222,221,51,170,283,265,149,166,37,31,111,6,317,91,222,200,321,278]",-6,-3,1,0,0,0,142,141,141,5,1,,,,,,,,,,,,,,,,,,,,,
,,,,,,,,,,,,,,,,,,,,,,,,,,,,,,,,,,,,,,,,,,,5ea5a65ce9c797598273b3ba,5fb5d9861124261d7ebf718c,2020-11-19_04h34.10.630,Colour_Similarity_Experiment,2020.1.2,Win32,60,5fb5945709dec70f2d595766,,,,,,,,,,,,,,,,,,,,PF,,,,,,,,7,10.508115,,,,,,,,,,,,,,,,,,,,,,,,,,,,2,37,67,1,0,0,response1disk,9,0,-6,1,0,0,rectangle,0,-6,1,0,0,7,1,"[302,56,222,221,51,170,283,265,149,166,37,31,111,6,317,91,222,200,321,278]",0,-6,1,0,0,0,143,142,142,39,1,,,,,,,,,,,,,,,,,,,,,
,,,,,,,,,,,,,,,,,,,,,,,,,,,,,,,,,,,,,,,,,,,5ea5a65ce9c797598273b3ba,5fb5d9861124261d7ebf718c,2020-11-19_04h34.10.630,Colour_Similarity_Experiment,2020.1.2,Win32,60,5fb5945709dec70f2d595766,,,,,,,,,,,,,,,,,,,,FF,,,,,,,,7,2.579635,,,,,,,,,,,,,,,,,,,,,,,,,,,,5,41,77,1,0,0,response1disk,1,-3,-9,1,0,0,rectangle,-3,-9,1,0,0,7,7,"[302,56,222,221,51,170,283,265,149,166,37,31,111,6,317,91,222,200,321,278]",-3,-9,1,0,0,0,144,143,143,131,1,,,,,,,,,,,,,,,,,,,,,
,,,,,,,,,,,,,,,,,,,,,,,,,,,,,,,,,,,,,,,,,,,5ea5a65ce9c797598273b3ba,5fb5d9861124261d7ebf718c,2020-11-19_04h34.10.630,Colour_Similarity_Experiment,2020.1.2,Win32,60,5fb5945709dec70f2d595766,,,,,,,,,,,,,,,,,,,,FF,,,,,,,,6,3.7999,,,,,,,,,,,,,,,,,,,,,,,,,,,,7,55,37,1,0,0,response1disk,4,9,2,1,0,0,rectangle,9,2,1,0,0,7,7,"[302,56,222,221,51,170,283,265,149,166,37,31,111,6,317,91,222,200,321,278]",9,2,1,0,0,0,145,144,144,158,1,,,,,,,,,,,,,,,,,,,,,
,,,,,,,,,,,,,,,,,,,,,,,,,,,,,,,,,,,,,,,,,,,5ea5a65ce9c797598273b3ba,5fb5d9861124261d7ebf718c,2020-11-19_04h34.10.630,Colour_Similarity_Experiment,2020.1.2,Win32,60,5fb5945709dec70f2d595766,,,,,,,,,,,,,,,,,,,,PF,,,,,,,,6,2.230485,,,,,,,,,,,,,,,,,,,,,,,,,,,,7,70,43,1,0,0,response1disk,4,6,5,1,0,0,rectangle,6,5,1,0,0,7,7,"[302,56,222,221,51,170,283,265,149,166,37,31,111,6,317,91,222,200,321,278]",6,5,1,0,0,0,146,145,145,43,1,,,,,,,,,,,,,,,,,,,,,
,,,,,,,,,,,,,,,,,,,,,,,,,,,,,,,,,,,,,,,,,,,5ea5a65ce9c797598273b3ba,5fb5d9861124261d7ebf718c,2020-11-19_04h34.10.630,Colour_Similarity_Experiment,2020.1.2,Win32,60,5fb5945709dec70f2d595766,,,,,,,,,,,,,,,,,,,,FF,,,,,,,,6,1.982425,,,,,,,,,,,,,,,,,,,,,,,,,,,,3,55,38,1,0,0,response1disk,6,-9,-2,1,0,0,rectangle,-9,-2,1,0,0,7,5,"[302,56,222,221,51,170,283,265,149,166,37,31,111,6,317,91,222,200,321,278]",-9,-2,1,0,0,0,147,146,146,95,1,,,,,,,,,,,,,,,,,,,,,
,,,,,,,,,,,,,,,,,,,,,,,,,,,,,,,,,,,,,,,,,,,5ea5a65ce9c797598273b3ba,5fb5d9861124261d7ebf718c,2020-11-19_04h34.10.630,Colour_Similarity_Experiment,2020.1.2,Win32,60,5fb5945709dec70f2d595766,,,,,,,,,,,,,,,,,,,,FF,,,,,,,,4,9.283095,,,,,,,,,,,,,,,,,,,,,,,,,,,,7,40,-56,1,0,0,response3disk,6,4,7,1,0,0,rectangle,4,7,1,0,0,7,5,"[302,56,222,221,51,170,283,265,149,166,37,31,111,6,317,91,222,200,321,278]",4,7,1,0,0,0,148,147,147,31,1,,,,,,,,,,,,,,,,,,,,,
,,,,,,,,,,,,,,,,,,,,,,,,,,,,,,,,,,,,,,,,,,,5ea5a65ce9c797598273b3ba,5fb5d9861124261d7ebf718c,2020-11-19_04h34.10.630,Colour_Similarity_Experiment,2020.1.2,Win32,60,5fb5945709dec70f2d595766,,,,,,,,,,,,,,,,,,,,PF,,,,,,,,6,3.074905,,,,,,,,,,,,,,,,,,,,,,,,,,,,8,63,46,1,0,0,response1disk,1,-5,-1,1,0,0,rectangle,-68,-41,1,0,0,7,2,"[302,56,222,221,51,170,283,265,149,166,37,31,111,6,317,91,222,200,321,278]",-4,3,1,0,0,0,149,148,148,57,1,response5disk_3,rectangle,,,,,,,,,,,,,,,,,,,
,,,,,,,,,,,,,,,,,,,,,,,,,,,,,,,,,,,,,,,,,,,5ea5a65ce9c797598273b3ba,5fb5d9861124261d7ebf718c,2020-11-19_04h34.10.630,Colour_Similarity_Experiment,2020.1.2,Win32,60,5fb5945709dec70f2d595766,,,,,,,,,,,,,,,,,,,,PF,,,,,,,,1,4.21993,,,,,,,,,,,,,,,,,,,,,,,,,,,,7,-84,33,1,0,0,response7disk,7,-2,1,1,0,0,rectangle,-2,1,1,0,0,7,7,"[302,56,222,221,51,170,283,265,149,166,37,31,111,6,317,91,222,200,321,278]",-2,1,1,0,0,0,150,149,149,51,1,,,,,,,,,,,,,,,,,,,,,
,,,,,,,,,,,,,,,,,,,,,,,,,,,,,,,,,,,,,,,,,,,5ea5a65ce9c797598273b3ba,5fb5d9861124261d7ebf718c,2020-11-19_04h34.10.630,Colour_Similarity_Experiment,2020.1.2,Win32,60,5fb5945709dec70f2d595766,,,,,,,,,,,,,,,,,,,,PF,,,,,,,,6,1.89087,,,,,,,,,,,,,,,,,,,,,,,,,,,,1,52,43,1,0,0,response1disk,8,0,-2,1,0,0,rectangle,0,-2,1,0,0,7,0,"[302,56,222,221,51,170,283,265,149,166,37,31,111,6,317,91,222,200,321,278]",0,-2,1,0,0,0,151,150,150,65,1,,,,,,,,,,,,,,,,,,,,,
,,,,,,,,,,,,,,,,,,,,,,,,,,,,,,,,,,,,,,,,,,,5ea5a65ce9c797598273b3ba,5fb5d9861124261d7ebf718c,2020-11-19_04h34.10.630,Colour_Similarity_Experiment,2020.1.2,Win32,60,5fb5945709dec70f2d595766,,,,,,,,,,,,,,,,,,,,FF,,,,,,,,6,7.19125,,,,,,,,,,,,,,,,,,,,,,,,,,,,8,62,58,1,0,0,response1disk,4,-2,-3,1,0,0,rectangle,-2,-3,1,0,0,7,5,"[302,56,222,221,51,170,283,265,149,166,37,31,111,6,317,91,222,200,321,278]",-2,-3,1,0,0,0,152,151,151,88,1,,,,,,,,,,,,,,,,,,,,,
,,,,,,,,,,,,,,,,,,,,,,,,,,,,,,,,,,,,,,,,,,,5ea5a65ce9c797598273b3ba,5fb5d9861124261d7ebf718c,2020-11-19_04h34.10.630,Colour_Similarity_Experiment,2020.1.2,Win32,60,5fb5945709dec70f2d595766,,,,,,,,,,,,,,,,,,,,PF,,,,,,,,6,2.277925,,,,,,,,,,,,,,,,,,,,,,,,,,,,6,58,34,1,0,0,response1disk,9,-11,-2,1,0,0,rectangle,-11,-2,1,0,0,7,5,"[302,56,222,221,51,170,283,265,149,166,37,31,111,6,317,91,222,200,321,278]",-11,-2,1,0,0,0,153,152,152,45,1,,,,,,,,,,,,,,,,,,,,,
,,,,,,,,,,,,,,,,,,,,,,,,,,,,,,,,,,,,,,,,,,,5ea5a65ce9c797598273b3ba,5fb5d9861124261d7ebf718c,2020-11-19_04h34.10.630,Colour_Similarity_Experiment,2020.1.2,Win32,60,5fb5945709dec70f2d595766,,,,,,,,,,,,,,,,,,,,FF,,,,,,,,0,3.17546,,,,,,,,,,,,,,,,,,,,,,,,,,,,2,-43,75,1,0,0,response7disk,2,-6,0,1,0,0,rectangle,-6,0,1,0,0,7,0,"[302,56,222,221,51,170,283,265,149,166,37,31,111,6,317,91,222,200,321,278]",-6,0,1,0,0,0,154,153,153,142,1,,,,,,,,,,,,,,,,,,,,,
,,,,,,,,,,,,,,,,,,,,,,,,,,,,,,,,,,,,,,,,,,,5ea5a65ce9c797598273b3ba,5fb5d9861124261d7ebf718c,2020-11-19_04h34.10.630,Colour_Similarity_Experiment,2020.1.2,Win32,60,5fb5945709dec70f2d595766,,,,,,,,,,,,,,,,,,,,PF,,,,,,,,6,3.15716,,,,,,,,,,,,,,,,,,,,,,,,,,,,6,64,35,1,0,0,response1disk,8,0,4,1,0,0,rectangle,0,4,1,0,0,7,3,"[302,56,222,221,51,170,283,265,149,166,37,31,111,6,317,91,222,200,321,278]",0,4,1,0,0,0,155,154,154,64,1,,,,,,,,,,,,,,,,,,,,,
,,,,,,,,,,,,,,,,,,,,,,,,,,,,,,,,,,,,,,,,,,,5ea5a65ce9c797598273b3ba,5fb5d9861124261d7ebf718c,2020-11-19_04h34.10.630,Colour_Similarity_Experiment,2020.1.2,Win32,60,5fb5945709dec70f2d595766,,,,,,,,,,,,,,,,,,,,PF,,,,,,,,7,6.098525,,,,,,,,,,,,,,,,,,,,,,,,,,,,3,54,98,1,0,0,response1disk,7,0,4,1,0,0,rectangle,0,4,1,0,0,7,3,"[302,56,222,221,51,170,283,265,149,166,37,31,111,6,317,91,222,200,321,278]",0,4,1,0,0,0,156,155,155,41,1,,,,,,,,,,,,,,,,,,,,,
,,,,,,,,,,,,,,,,,,,,,,,,,,,,,,,,,,,,,,,,,,,5ea5a65ce9c797598273b3ba,5fb5d9861124261d7ebf718c,2020-11-19_04h34.10.630,Colour_Similarity_Experiment,2020.1.2,Win32,60,5fb5945709dec70f2d595766,,,,,,,,,,,,,,,,,,,,FF,,,,,,,,7,2.79101,,,,,,,,,,,,,,,,,,,,,,,,,,,,7,46,47,1,0,0,response1disk,9,-6,3,1,0,0,rectangle,-6,3,1,0,0,7,1,"[302,56,222,221,51,170,283,265,149,166,37,31,111,6,317,91,222,200,321,278]",-6,3,1,0,0,0,157,156,156,155,1,,,,,,,,,,,,,,,,,,,,,
,,,,,,,,,,,,,,,,,,,,,,,,,,,,,,,,,,,,,,,,,,,5ea5a65ce9c797598273b3ba,5fb5d9861124261d7ebf718c,2020-11-19_04h34.10.630,Colour_Similarity_Experiment,2020.1.2,Win32,60,5fb5945709dec70f2d595766,,,,,,,,,,,,,,,,,,,,PF,,,,,,,,6,1.766415,,,,,,,,,,,,,,,,,,,,,,,,,,,,2,38,34,1,0,0,response1disk,5,-8,3,1,0,0,rectangle,-8,3,1,0,0,7,7,"[302,56,222,221,51,170,283,265,149,166,37,31,111,6,317,91,222,200,321,278]",-8,3,1,0,0,0,158,157,157,147,1,,,,,,,,,,,,,,,,,,,,,
,,,,,,,,,,,,,,,,,,,,,,,,,,,,,,,,,,,,,,,,,,,5ea5a65ce9c797598273b3ba,5fb5d9861124261d7ebf718c,2020-11-19_04h34.10.630,Colour_Similarity_Experiment,2020.1.2,Win32,60,5fb5945709dec70f2d595766,,,,,,,,,,,,,,,,,,,,PF,,,,,,,,6,1.94116,,,,,,,,,,,,,,,,,,,,,,,,,,,,4,65,45,1,0,0,response1disk,9,-10,3,1,0,0,rectangle,-10,3,1,0,0,7,5,"[302,56,222,221,51,170,283,265,149,166,37,31,111,6,317,91,222,200,321,278]",-10,3,1,0,0,0,159,158,158,75,1,,,,,,,,,,,,,,,,,,,,,
,,,,,,,,,,,,,,,,,,,,,,,,,,,,,,,,,,,,,,,,,,,5ea5a65ce9c797598273b3ba,5fb5d9861124261d7ebf718c,2020-11-19_04h34.10.630,Colour_Similarity_Experiment,2020.1.2,Win32,60,5fb5945709dec70f2d595766,,,,,,,,,,,,,,,,,,,,FF,,,,,,,,7,2.56071,,,,,,,,,,,,,,,,,,,,,,,,,,,,3,48,75,1,0,0,response1disk,8,2,9,1,0,0,rectangle,2,9,1,0,0,7,7,"[302,56,222,221,51,170,283,265,149,166,37,31,111,6,317,91,222,200,321,278]",2,9,1,0,0,0,160,159,159,44,1,,,,,,,,,,,,,,,,,,,,,
,,,,,,,,,,,,,,,,,,,,,,,,,,,,,,,,,,,,,,,,,,,5ea5a65ce9c797598273b3ba,5fb5d9861124261d7ebf718c,2020-11-19_04h34.10.630,Colour_Similarity_Experiment,2020.1.2,Win32,60,5fb5945709dec70f2d595766,,,,,,,,,,,,,,,,,,,,PF,,,,,,,,7,3.26683,,,,,,,,,,,,,,,,,,,,,,,,,,,,7,47,76,1,0,0,response1disk,1,-4,-5,1,0,0,rectangle,-4,-5,1,0,0,7,7,"[302,56,222,221,51,170,283,265,149,166,37,31,111,6,317,91,222,200,321,278]",-4,-5,1,0,0,0,161,160,160,53,1,,,,,,,,,,,,,,,,,,,,,
,,,,,,,,,,,,,,,,,,,,,,,,,,,,,,,,,,,,,,,,,,,5ea5a65ce9c797598273b3ba,5fb5d9861124261d7ebf718c,2020-11-19_04h34.10.630,Colour_Similarity_Experiment,2020.1.2,Win32,60,5fb5945709dec70f2d595766,,,,,,,,,,,,,,,,,,,,PF,,,,,,,,7,3.458175,,,,,,,,,,,,,,,,,,,,,,,,,,,,1,43,70,1,0,0,response1disk,3,-6,0,1,0,0,rectangle,-6,0,1,0,0,7,5,"[302,56,222,221,51,170,283,265,149,166,37,31,111,6,317,91,222,200,321,278]",-6,0,1,0,0,0,162,161,161,1,1,,,,,,,,,,,,,,,,,,,,,
,,,,,,,,,,,,,,,,,,,,,,,,,,,,,,,,,,,,,,,,,,,5ea5a65ce9c797598273b3ba,5fb5d9861124261d7ebf718c,2020-11-19_04h34.10.630,Colour_Similarity_Experiment,2020.1.2,Win32,60,5fb5945709dec70f2d595766,,,,,,,,,,,,,,,,,,,,,,,,,,,,,,,,,,,,,,,,,,,,,,,,,,,,,,,,,,,,,,,,,,,,,,,,,,,,,,,,,,,,,,,,,,,,0,0,0,0,1,,,,,,,,,,,,,,
,,,,,,,,,,,,,,,,,,,,,,,,,,,,,,,,,,,,,,,,,,,5ea5a65ce9c797598273b3ba,5fb5d9861124261d7ebf718c,2020-11-19_04h34.10.630,Colour_Similarity_Experiment,2020.1.2,Win32,60,5fb5945709dec70f2d595766,,,,,,,,,,,,,,,,,,,,FF,,,,,,,,6,20.121615,,,,,,,,,,,,,,,,,,,,,,,,,,,,4,52,39,1,0,0,response1disk,4,-4,-10,1,0,0,rectangle,-4,-10,1,0,0,7,6,"[302,56,222,221,51,170,283,265,149,166,37,31,111,6,317,91,222,200,321,278]",-4,-10,1,0,0,0,163,0,0,84,1,,,,,,,,,,,,,,,,,,,,,
,,,,,,,,,,,,,,,,,,,,,,,,,,,,,,,,,,,,,,,,,,,5ea5a65ce9c797598273b3ba,5fb5d9861124261d7ebf718c,2020-11-19_04h34.10.630,Colour_Similarity_Experiment,2020.1.2,Win32,60,5fb5945709dec70f2d595766,,,,,,,,,,,,,,,,,,,,PF,,,,,,,,6,10.05496,,,,,,,,,,,,,,,,,,,,,,,,,,,,9,68,22,1,0,0,response1disk,1,4,0,1,0,0,rectangle,4,0,1,0,0,7,5,"[302,56,222,221,51,170,283,265,149,166,37,31,111,6,317,91,222,200,321,278]",4,0,1,0,0,0,164,1,1,74,1,,,,,,,,,,,,,,,,,,,,,
,,,,,,,,,,,,,,,,,,,,,,,,,,,,,,,,,,,,,,,,,,,5ea5a65ce9c797598273b3ba,5fb5d9861124261d7ebf718c,2020-11-19_04h34.10.630,Colour_Similarity_Experiment,2020.1.2,Win32,60,5fb5945709dec70f2d595766,,,,,,,,,,,,,,,,,,,,FF,,,,,,,,6,2.82372,,,,,,,,,,,,,,,,,,,,,,,,,,,,5,100,41,1,0,0,response1disk,4,4,-5,1,0,0,rectangle,4,-5,1,0,0,7,7,"[302,56,222,221,51,170,283,265,149,166,37,31,111,6,317,91,222,200,321,278]",4,-5,1,0,0,0,165,2,2,8,1,,,,,,,,,,,,,,,,,,,,,
,,,,,,,,,,,,,,,,,,,,,,,,,,,,,,,,,,,,,,,,,,,5ea5a65ce9c797598273b3ba,5fb5d9861124261d7ebf718c,2020-11-19_04h34.10.630,Colour_Similarity_Experiment,2020.1.2,Win32,60,5fb5945709dec70f2d595766,,,,,,,,,,,,,,,,,,,,FF,,,,,,,,6,2.08988,,,,,,,,,,,,,,,,,,,,,,,,,,,,2,92,43,1,0,0,response1disk,4,-4,-9,1,0,0,rectangle,-98,44,1,0,0,1,1,"[302,56,222,221,51,170,283,265,149,166,37,31,111,6,317,91,222,200,321,278]",1,1,1,0,0,0,166,3,3,145,1,response7disk_3,rectangle,,,,,,,,,,,,,,,,,,,
,,,,,,,,,,,,,,,,,,,,,,,,,,,,,,,,,,,,,,,,,,,5ea5a65ce9c797598273b3ba,5fb5d9861124261d7ebf718c,2020-11-19_04h34.10.630,Colour_Similarity_Experiment,2020.1.2,Win32,60,5fb5945709dec70f2d595766,,,,,,,,,,,,,,,,,,,,FF,,,,,,,,6,2.87062,,,,,,,,,,,,,,,,,,,,,,,,,,,,8,54,39,1,0,0,response1disk,5,-2,1,1,0,0,rectangle,-2,1,1,0,0,1,5,"[302,56,222,221,51,170,283,265,149,166,37,31,111,6,317,91,222,200,321,278]",-2,1,1,0,0,0,167,4,4,152,1,,,,,,,,,,,,,,,,,,,,,
,,,,,,,,,,,,,,,,,,,,,,,,,,,,,,,,,,,,,,,,,,,5ea5a65ce9c797598273b3ba,5fb5d9861124261d7ebf718c,2020-11-19_04h34.10.630,Colour_Similarity_Experiment,2020.1.2,Win32,60,5fb5945709dec70f2d595766,,,,,,,,,,,,,,,,,,,,PF,,,,,,,,1,4.235625,,,,,,,,,,,,,,,,,,,,,,,,,,,,9,-87,23,1,0,0,response7disk,9,-15,2,1,0,0,rectangle,-15,2,1,0,0,1,7,"[302,56,222,221,51,170,283,265,149,166,37,31,111,6,317,91,222,200,321,278]",-15,2,1,0,0,0,168,5,5,106,1,,,,,,,,,,,,,,,,,,,,,
,,,,,,,,,,,,,,,,,,,,,,,,,,,,,,,,,,,,,,,,,,,5ea5a65ce9c797598273b3ba,5fb5d9861124261d7ebf718c,2020-11-19_04h34.10.630,Colour_Similarity_Experiment,2020.1.2,Win32,60,5fb5945709dec70f2d595766,,,,,,,,,,,,,,,,,,,,FF,,,,,,,,6,4.74256,,,,,,,,,,,,,,,,,,,,,,,,,,,,8,54,31,1,0,0,response1disk,6,-1,-4,1,0,0,rectangle,-1,-4,1,0,0,1,7,"[302,56,222,221,51,170,283,265,149,166,37,31,111,6,317,91,222,200,321,278]",-1,-4,1,0,0,0,169,6,6,37,1,,,,,,,,,,,,,,,,,,,,,
,,,,,,,,,,,,,,,,,,,,,,,,,,,,,,,,,,,,,,,,,,,5ea5a65ce9c797598273b3ba,5fb5d9861124261d7ebf718c,2020-11-19_04h34.10.630,Colour_Similarity_Experiment,2020.1.2,Win32,60,5fb5945709dec70f2d595766,,,,,,,,,,,,,,,,,,,,PF,,,,,,,,5,2.893255,,,,,,,,,,,,,,,,,,,,,,,,,,,,4,38,-28,1,0,0,response3disk,5,-4,4,1,0,0,rectangle,38,94,1,0,0,7,7,"[302,56,222,221,51,170,283,265,149,166,37,31,111,6,317,91,222,200,321,278]",8,4,1,0,0,0,170,7,7,49,1,response1disk_3,rectangle,,,,,,,,,,,,,,,,,,,
,,,,,,,,,,,,,,,,,,,,,,,,,,,,,,,,,,,,,,,,,,,5ea5a65ce9c797598273b3ba,5fb5d9861124261d7ebf718c,2020-11-19_04h34.10.630,Colour_Similarity_Experiment,2020.1.2,Win32,60,5fb5945709dec70f2d595766,,,,,,,,,,,,,,,,,,,,PF,,,,,,,,6,2.682775,,,,,,,,,,,,,,,,,,,,,,,,,,,,9,69,42,1,0,0,response1disk,3,-2,-1,1,0,0,rectangle,-2,-1,1,0,0,7,0,"[302,56,222,221,51,170,283,265,149,166,37,31,111,6,317,91,222,200,321,278]",-2,-1,1,0,0,0,171,8,8,119,1,,,,,,,,,,,,,,,,,,,,,
,,,,,,,,,,,,,,,,,,,,,,,,,,,,,,,,,,,,,,,,,,,5ea5a65ce9c797598273b3ba,5fb5d9861124261d7ebf718c,2020-11-19_04h34.10.630,Colour_Similarity_Experiment,2020.1.2,Win32,60,5fb5945709dec70f2d595766,,,,,,,,,,,,,,,,,,,,PF,,,,,,,,7,12.189405,,,,,,,,,,,,,,,,,,,,,,,,,,,,2,42,68,1,0,0,response1disk,8,1,3,1,0,0,rectangle,1,3,1,0,0,7,1,"[302,56,222,221,51,170,283,265,149,166,37,31,111,6,317,91,222,200,321,278]",1,3,1,0,0,0,172,9,9,52,1,,,,,,,,,,,,,,,,,,,,,
,,,,,,,,,,,,,,,,,,,,,,,,,,,,,,,,,,,,,,,,,,,5ea5a65ce9c797598273b3ba,5fb5d9861124261d7ebf718c,2020-11-19_04h34.10.630,Colour_Similarity_Experiment,2020.1.2,Win32,60,5fb5945709dec70f2d595766,,,,,,,,,,,,,,,,,,,,PF,,,,,,,,0,2.153845,,,,,,,,,,,,,,,,,,,,,,,,,,,,2,-39,60,1,0,0,response7disk,2,1,0,1,0,0,rectangle,1,0,1,0,0,7,2,"[302,56,222,221,51,170,283,265,149,166,37,31,111,6,317,91,222,200,321,278]",1,0,1,0,0,0,173,10,10,14,1,,,,,,,,,,,,,,,,,,,,,
,,,,,,,,,,,,,,,,,,,,,,,,,,,,,,,,,,,,,,,,,,,5ea5a65ce9c797598273b3ba,5fb5d9861124261d7ebf718c,2020-11-19_04h34.10.630,Colour_Similarity_Experiment,2020.1.2,Win32,60,5fb5945709dec70f2d595766,,,,,,,,,,,,,,,,,,,,FF,,,,,,,,6,5.11469,,,,,,,,,,,,,,,,,,,,,,,,,,,,9,51,37,1,0,0,response1disk,7,-9,4,1,0,0,rectangle,-9,4,1,0,0,7,2,"[302,56,222,221,51,170,283,265,149,166,37,31,111,6,317,91,222,200,321,278]",-9,4,1,0,0,0,174,11,11,100,1,,,,,,,,,,,,,,,,,,,,,
,,,,,,,,,,,,,,,,,,,,,,,,,,,,,,,,,,,,,,,,,,,5ea5a65ce9c797598273b3ba,5fb5d9861124261d7ebf718c,2020-11-19_04h34.10.630,Colour_Similarity_Experiment,2020.1.2,Win32,60,5fb5945709dec70f2d595766,,,,,,,,,,,,,,,,,,,,FF,,,,,,,,6,2.26402,,,,,,,,,,,,,,,,,,,,,,,,,,,,7,50,34,1,0,0,response1disk,2,2,0,1,0,0,rectangle,2,0,1,0,0,7,7,"[302,56,222,221,51,170,283,265,149,166,37,31,111,6,317,91,222,200,321,278]",2,0,1,0,0,0,175,12,12,138,1,,,,,,,,,,,,,,,,,,,,,
,,,,,,,,,,,,,,,,,,,,,,,,,,,,,,,,,,,,,,,,,,,5ea5a65ce9c797598273b3ba,5fb5d9861124261d7ebf718c,2020-11-19_04h34.10.630,Colour_Similarity_Experiment,2020.1.2,Win32,60,5fb5945709dec70f2d595766,,,,,,,,,,,,,,,,,,,,PF,,,,,,,,7,3.305835,,,,,,,,,,,,,,,,,,,,,,,,,,,,2,41,83,1,0,0,response1disk,1,-2,-2,1,0,0,rectangle,-2,-2,1,0,0,7,1,"[302,56,222,221,51,170,283,265,149,166,37,31,111,6,317,91,222,200,321,278]",-2,-2,1,0,0,0,176,13,13,9,1,,,,,,,,,,,,,,,,,,,,,
,,,,,,,,,,,,,,,,,,,,,,,,,,,,,,,,,,,,,,,,,,,5ea5a65ce9c797598273b3ba,5fb5d9861124261d7ebf718c,2020-11-19_04h34.10.630,Colour_Similarity_Experiment,2020.1.2,Win32,60,5fb5945709dec70f2d595766,,,,,,,,,,,,,,,,,,,,PF,,,,,,,,7,4.516645,,,,,,,,,,,,,,,,,,,,,,,,,,,,8,31,63,1,0,0,response1disk,4,-10,-3,1,0,0,rectangle,-10,-3,1,0,0,7,1,"[302,56,222,221,51,170,283,265,149,166,37,31,111,6,317,91,222,200,321,278]",-10,-3,1,0,0,0,177,14,14,78,1,,,,,,,,,,,,,,,,,,,,,
,,,,,,,,,,,,,,,,,,,,,,,,,,,,,,,,,,,,,,,,,,,5ea5a65ce9c797598273b3ba,5fb5d9861124261d7ebf718c,2020-11-19_04h34.10.630,Colour_Similarity_Experiment,2020.1.2,Win32,60,5fb5945709dec70f2d595766,,,,,,,,,,,,,,,,,,,,PF,,,,,,,,6,2.650025,,,,,,,,,,,,,,,,,,,,,,,,,,,,2,59,36,1,0,0,response1disk,4,0,-6,1,0,0,rectangle,0,-6,1,0,0,7,1,"[302,56,222,221,51,170,283,265,149,166,37,31,111,6,317,91,222,200,321,278]",0,-6,1,0,0,0,178,15,15,127,1,,,,,,,,,,,,,,,,,,,,,
,,,,,,,,,,,,,,,,,,,,,,,,,,,,,,,,,,,,,,,,,,,5ea5a65ce9c797598273b3ba,5fb5d9861124261d7ebf718c,2020-11-19_04h34.10.630,Colour_Similarity_Experiment,2020.1.2,Win32,60,5fb5945709dec70f2d595766,,,,,,,,,,,,,,,,,,,,FF,,,,,,,,7,2.09956,,,,,,,,,,,,,,,,,,,,,,,,,,,,7,43,88,1,0,0,response1disk,1,1,-1,1,0,0,rectangle,1,-1,1,0,0,7,1,"[302,56,222,221,51,170,283,265,149,166,37,31,111,6,317,91,222,200,321,278]",1,-1,1,0,0,0,179,16,16,132,1,,,,,,,,,,,,,,,,,,,,,
,,,,,,,,,,,,,,,,,,,,,,,,,,,,,,,,,,,,,,,,,,,5ea5a65ce9c797598273b3ba,5fb5d9861124261d7ebf718c,2020-11-19_04h34.10.630,Colour_Similarity_Experiment,2020.1.2,Win32,60,5fb5945709dec70f2d595766,,,,,,,,,,,,,,,,,,,,PF,,,,,,,,0,2.09095,,,,,,,,,,,,,,,,,,,,,,,,,,,,1,-39,78,1,0,0,response7disk,1,-3,-4,1,0,0,rectangle,-3,-4,1,0,0,7,6,"[302,56,222,221,51,170,283,265,149,166,37,31,111,6,317,91,222,200,321,278]",-3,-4,1,0,0,0,180,17,17,76,1,,,,,,,,,,,,,,,,,,,,,
,,,,,,,,,,,,,,,,,,,,,,,,,,,,,,,,,,,,,,,,,,,5ea5a65ce9c797598273b3ba,5fb5d9861124261d7ebf718c,2020-11-19_04h34.10.630,Colour_Similarity_Experiment,2020.1.2,Win32,60,5fb5945709dec70f2d595766,,,,,,,,,,,,,,,,,,,,PF,,,,,,,,3,3.26841,,,,,,,,,,,,,,,,,,,,,,,,,,,,4,-32,-89,1,0,0,response5disk,3,-8,0,1,0,0,rectangle,-8,0,1,0,0,7,1,"[302,56,222,221,51,170,283,265,149,166,37,31,111,6,317,91,222,200,321,278]",-8,0,1,0,0,0,181,18,18,89,1,,,,,,,,,,,,,,,,,,,,,
,,,,,,,,,,,,,,,,,,,,,,,,,,,,,,,,,,,,,,,,,,,5ea5a65ce9c797598273b3ba,5fb5d9861124261d7ebf718c,2020-11-19_04h34.10.630,Colour_Similarity_Experiment,2020.1.2,Win32,60,5fb5945709dec70f2d595766,,,,,,,,,,,,,,,,,,,,FF,,,,,,,,7,10.147625,,,,,,,,,,,,,,,,,,,,,,,,,,,,1,38,54,1,0,0,response1disk,4,1,5,1,0,0,rectangle,1,5,1,0,0,7,4,"[302,56,222,221,51,170,283,265,149,166,37,31,111,6,317,91,222,200,321,278]",1,5,1,0,0,0,182,19,19,135,1,,,,,,,,,,,,,,,,,,,,,
,,,,,,,,,,,,,,,,,,,,,,,,,,,,,,,,,,,,,,,,,,,5ea5a65ce9c797598273b3ba,5fb5d9861124261d7ebf718c,2020-11-19_04h34.10.630,Colour_Similarity_Experiment,2020.1.2,Win32,60,5fb5945709dec70f2d595766,,,,,,,,,,,,,,,,,,,,FF,,,,,,,,4,3.99408,,,,,,,,,,,,,,,,,,,,,,,,,,,,4,40,-63,1,0,0,response3disk,5,12,-1,1,0,0,rectangle,12,-1,1,0,0,7,5,"[302,56,222,221,51,170,283,265,149,166,37,31,111,6,317,91,222,200,321,278]",12,-1,1,0,0,0,183,20,20,116,1,,,,,,,,,,,,,,,,,,,,,
,,,,,,,,,,,,,,,,,,,,,,,,,,,,,,,,,,,,,,,,,,,5ea5a65ce9c797598273b3ba,5fb5d9861124261d7ebf718c,2020-11-19_04h34.10.630,Colour_Similarity_Experiment,2020.1.2,Win32,60,5fb5945709dec70f2d595766,,,,,,,,,,,,,,,,,,,,FF,,,,,,,,6,5.974535,,,,,,,,,,,,,,,,,,,,,,,,,,,,3,67,26,1,0,0,response1disk,1,1,0,1,0,0,rectangle,1,0,1,0,0,7,5,"[302,56,222,221,51,170,283,265,149,166,37,31,111,6,317,91,222,200,321,278]",1,0,1,0,0,0,184,21,21,125,1,,,,,,,,,,,,,,,,,,,,,
,,,,,,,,,,,,,,,,,,,,,,,,,,,,,,,,,,,,,,,,,,,5ea5a65ce9c797598273b3ba,5fb5d9861124261d7ebf718c,2020-11-19_04h34.10.630,Colour_Similarity_Experiment,2020.1.2,Win32,60,5fb5945709dec70f2d595766,,,,,,,,,,,,,,,,,,,,PF,,,,,,,,0,1.90784,,,,,,,,,,,,,,,,,,,,,,,,,,,,5,-31,73,1,0,0,response7disk,5,4,-2,1,0,0,rectangle,4,-2,1,0,0,7,4,"[302,56,222,221,51,170,283,265,149,166,37,31,111,6,317,91,222,200,321,278]",4,-2,1,0,0,0,185,22,22,94,1,,,,,,,,,,,,,,,,,,,,,
,,,,,,,,,,,,,,,,,,,,,,,,,,,,,,,,,,,,,,,,,,,5ea5a65ce9c797598273b3ba,5fb5d9861124261d7ebf718c,2020-11-19_04h34.10.630,Colour_Similarity_Experiment,2020.1.2,Win32,60,5fb5945709dec70f2d595766,,,,,,,,,,,,,,,,,,,,FF,,,,,,,,6,2.777365,,,,,,,,,,,,,,,,,,,,,,,,,,,,9,50,39,1,0,0,response1disk,3,7,-1,1,0,0,rectangle,7,-1,1,0,0,7,0,"[302,56,222,221,51,170,283,265,149,166,37,31,111,6,317,91,222,200,321,278]",7,-1,1,0,0,0,186,23,23,141,1,,,,,,,,,,,,,,,,,,,,,
,,,,,,,,,,,,,,,,,,,,,,,,,,,,,,,,,,,,,,,,,,,5ea5a65ce9c797598273b3ba,5fb5d9861124261d7ebf718c,2020-11-19_04h34.10.630,Colour_Similarity_Experiment,2020.1.2,Win32,60,5fb5945709dec70f2d595766,,,,,,,,,,,,,,,,,,,,PF,,,,,,,,6,5.756765,,,,,,,,,,,,,,,,,,,,,,,,,,,,5,62,37,1,0,0,response1disk,9,-2,-1,1,0,0,rectangle,-2,-1,1,0,0,7,0,"[302,56,222,221,51,170,283,265,149,166,37,31,111,6,317,91,222,200,321,278]",-2,-1,1,0,0,0,187,24,24,136,1,,,,,,,,,,,,,,,,,,,,,
,,,,,,,,,,,,,,,,,,,,,,,,,,,,,,,,,,,,,,,,,,,5ea5a65ce9c797598273b3ba,5fb5d9861124261d7ebf718c,2020-11-19_04h34.10.630,Colour_Similarity_Experiment,2020.1.2,Win32,60,5fb5945709dec70f2d595766,,,,,,,,,,,,,,,,,,,,PF,,,,,,,,6,4.05641,,,,,,,,,,,,,,,,,,,,,,,,,,,,6,49,29,1,0,0,response1disk,2,1,-5,1,0,0,rectangle,1,-5,1,0,0,7,4,"[302,56,222,221,51,170,283,265,149,166,37,31,111,6,317,91,222,200,321,278]",1,-5,1,0,0,0,188,25,25,130,1,,,,,,,,,,,,,,,,,,,,,
,,,,,,,,,,,,,,,,,,,,,,,,,,,,,,,,,,,,,,,,,,,5ea5a65ce9c797598273b3ba,5fb5d9861124261d7ebf718c,2020-11-19_04h34.10.630,Colour_Similarity_Experiment,2020.1.2,Win32,60,5fb5945709dec70f2d595766,,,,,,,,,,,,,,,,,,,,PF,,,,,,,,6,1.997055,,,,,,,,,,,,,,,,,,,,,,,,,,,,8,69,45,1,0,0,response1disk,2,-5,-2,1,0,0,rectangle,-5,-2,1,0,0,7,2,"[302,56,222,221,51,170,283,265,149,166,37,31,111,6,317,91,222,200,321,278]",-5,-2,1,0,0,0,189,26,26,83,1,,,,,,,,,,,,,,,,,,,,,
,,,,,,,,,,,,,,,,,,,,,,,,,,,,,,,,,,,,,,,,,,,5ea5a65ce9c797598273b3ba,5fb5d9861124261d7ebf718c,2020-11-19_04h34.10.630,Colour_Similarity_Experiment,2020.1.2,Win32,60,5fb5945709dec70f2d595766,,,,,,,,,,,,,,,,,,,,PF,,,,,,,,5,2.165585,,,,,,,,,,,,,,,,,,,,,,,,,,,,7,53,-32,1,0,0,response3disk,5,10,4,1,0,0,rectangle,10,4,1,0,0,7,4,"[302,56,222,221,51,170,283,265,149,166,37,31,111,6,317,91,222,200,321,278]",10,4,1,0,0,0,190,27,27,92,1,,,,,,,,,,,,,,,,,,,,,
,,,,,,,,,,,,,,,,,,,,,,,,,,,,,,,,,,,,,,,,,,,5ea5a65ce9c797598273b3ba,5fb5d9861124261d7ebf718c,2020-11-19_04h34.10.630,Colour_Similarity_Experiment,2020.1.2,Win32,60,5fb5945709dec70f2d595766,,,,,,,,,,,,,,,,,,,,PF,,,,,,,,7,3.594195,,,,,,,,,,,,,,,,,,,,,,,,,,,,3,30,56,1,0,0,response1disk,1,-9,3,1,0,0,rectangle,-9,3,1,0,0,7,3,"[302,56,222,221,51,170,283,265,149,166,37,31,111,6,317,91,222,200,321,278]",-9,3,1,0,0,0,191,28,28,96,1,,,,,,,,,,,,,,,,,,,,,
,,,,,,,,,,,,,,,,,,,,,,,,,,,,,,,,,,,,,,,,,,,5ea5a65ce9c797598273b3ba,5fb5d9861124261d7ebf718c,2020-11-19_04h34.10.630,Colour_Similarity_Experiment,2020.1.2,Win32,60,5fb5945709dec70f2d595766,,,,,,,,,,,,,,,,,,,,FF,,,,,,,,6,3.34981,,,,,,,,,,,,,,,,,,,,,,,,,,,,1,60,39,1,0,0,response1disk,3,9,0,1,0,0,rectangle,9,0,1,0,0,7,3,"[302,56,222,221,51,170,283,265,149,166,37,31,111,6,317,91,222,200,321,278]",9,0,1,0,0,0,192,29,29,99,1,,,,,,,,,,,,,,,,,,,,,
,,,,,,,,,,,,,,,,,,,,,,,,,,,,,,,,,,,,,,,,,,,5ea5a65ce9c797598273b3ba,5fb5d9861124261d7ebf718c,2020-11-19_04h34.10.630,Colour_Similarity_Experiment,2020.1.2,Win32,60,5fb5945709dec70f2d595766,,,,,,,,,,,,,,,,,,,,FF,,,,,,,,4,7.558075,,,,,,,,,,,,,,,,,,,,,,,,,,,,5,43,-45,1,0,0,response3disk,7,-11,2,1,0,0,rectangle,-11,2,1,0,0,7,0,"[302,56,222,221,51,170,283,265,149,166,37,31,111,6,317,91,222,200,321,278]",-11,2,1,0,0,0,193,30,30,7,1,,,,,,,,,,,,,,,,,,,,,
,,,,,,,,,,,,,,,,,,,,,,,,,,,,,,,,,,,,,,,,,,,5ea5a65ce9c797598273b3ba,5fb5d9861124261d7ebf718c,2020-11-19_04h34.10.630,Colour_Similarity_Experiment,2020.1.2,Win32,60,5fb5945709dec70f2d595766,,,,,,,,,,,,,,,,,,,,PF,,,,,,,,6,2.37275,,,,,,,,,,,,,,,,,,,,,,,,,,,,7,48,39,1,0,0,response1disk,8,-4,-1,1,0,0,rectangle,-4,-1,1,0,0,7,3,"[302,56,222,221,51,170,283,265,149,166,37,31,111,6,317,91,222,200,321,278]",-4,-1,1,0,0,0,194,31,31,140,1,,,,,,,,,,,,,,,,,,,,,
,,,,,,,,,,,,,,,,,,,,,,,,,,,,,,,,,,,,,,,,,,,5ea5a65ce9c797598273b3ba,5fb5d9861124261d7ebf718c,2020-11-19_04h34.10.630,Colour_Similarity_Experiment,2020.1.2,Win32,60,5fb5945709dec70f2d595766,,,,,,,,,,,,,,,,,,,,PF,,,,,,,,6,2.45212,,,,,,,,,,,,,,,,,,,,,,,,,,,,8,89,41,1,0,0,response1disk,7,3,-3,1,0,0,rectangle,3,-3,1,0,0,7,3,"[302,56,222,221,51,170,283,265,149,166,37,31,111,6,317,91,222,200,321,278]",3,-3,1,0,0,0,195,32,32,23,1,,,,,,,,,,,,,,,,,,,,,
,,,,,,,,,,,,,,,,,,,,,,,,,,,,,,,,,,,,,,,,,,,5ea5a65ce9c797598273b3ba,5fb5d9861124261d7ebf718c,2020-11-19_04h34.10.630,Colour_Similarity_Experiment,2020.1.2,Win32,60,5fb5945709dec70f2d595766,,,,,,,,,,,,,,,,,,,,PF,,,,,,,,5,2.99441,,,,,,,,,,,,,,,,,,,,,,,,,,,,5,48,-33,1,0,0,response3disk,6,2,1,1,0,0,rectangle,2,1,1,0,0,7,0,"[302,56,222,221,51,170,283,265,149,166,37,31,111,6,317,91,222,200,321,278]",2,1,1,0,0,0,196,33,33,103,1,,,,,,,,,,,,,,,,,,,,,
,,,,,,,,,,,,,,,,,,,,,,,,,,,,,,,,,,,,,,,,,,,5ea5a65ce9c797598273b3ba,5fb5d9861124261d7ebf718c,2020-11-19_04h34.10.630,Colour_Similarity_Experiment,2020.1.2,Win32,60,5fb5945709dec70f2d595766,,,,,,,,,,,,,,,,,,,,PF,,,,,,,,1,2.3996,,,,,,,,,,,,,,,,,,,,,,,,,,,,6,-77,26,1,0,0,response7disk,6,4,2,1,0,0,rectangle,4,2,1,0,0,7,7,"[302,56,222,221,51,170,283,265,149,166,37,31,111,6,317,91,222,200,321,278]",4,2,1,0,0,0,197,34,34,0,1,,,,,,,,,,,,,,,,,,,,,
,,,,,,,,,,,,,,,,,,,,,,,,,,,,,,,,,,,,,,,,,,,5ea5a65ce9c797598273b3ba,5fb5d9861124261d7ebf718c,2020-11-19_04h34.10.630,Colour_Similarity_Experiment,2020.1.2,Win32,60,5fb5945709dec70f2d595766,,,,,,,,,,,,,,,,,,,,FF,,,,,,,,7,2.188925,,,,,,,,,,,,,,,,,,,,,,,,,,,,4,36,94,1,0,0,response1disk,8,-6,-5,1,0,0,rectangle,-6,-5,1,0,0,7,6,"[302,56,222,221,51,170,283,265,149,166,37,31,111,6,317,91,222,200,321,278]",-6,-5,1,0,0,0,198,35,35,35,1,,,,,,,,,,,,,,,,,,,,,
,,,,,,,,,,,,,,,,,,,,,,,,,,,,,,,,,,,,,,,,,,,5ea5a65ce9c797598273b3ba,5fb5d9861124261d7ebf718c,2020-11-19_04h34.10.630,Colour_Similarity_Experiment,2020.1.2,Win32,60,5fb5945709dec70f2d595766,,,,,,,,,,,,,,,,,,,,PF,,,,,,,,6,3.376055,,,,,,,,,,,,,,,,,,,,,,,,,,,,9,47,43,1,0,0,response1disk,5,-15,0,1,0,0,rectangle,-15,0,1,0,0,7,3,"[302,56,222,221,51,170,283,265,149,166,37,31,111,6,317,91,222,200,321,278]",-15,0,1,0,0,0,199,36,36,134,1,,,,,,,,,,,,,,,,,,,,,
,,,,,,,,,,,,,,,,,,,,,,,,,,,,,,,,,,,,,,,,,,,5ea5a65ce9c797598273b3ba,5fb5d9861124261d7ebf718c,2020-11-19_04h34.10.630,Colour_Similarity_Experiment,2020.1.2,Win32,60,5fb5945709dec70f2d595766,,,,,,,,,,,,,,,,,,,,FF,,,,,,,,6,2.71718,,,,,,,,,,,,,,,,,,,,,,,,,,,,1,55,49,1,0,0,response1disk,2,-2,-5,1,0,0,rectangle,-113,41,1,0,0,1,1,"[302,56,222,221,51,170,283,265,149,166,37,31,111,6,317,91,222,200,321,278]",8,9,1,0,0,0,200,37,37,2,1,response7disk_3,rectangle,,,,,,,,,,,,,,,,,,,
,,,,,,,,,,,,,,,,,,,,,,,,,,,,,,,,,,,,,,,,,,,5ea5a65ce9c797598273b3ba,5fb5d9861124261d7ebf718c,2020-11-19_04h34.10.630,Colour_Similarity_Experiment,2020.1.2,Win32,60,5fb5945709dec70f2d595766,,,,,,,,,,,,,,,,,,,,FF,,,,,,,,6,2.25393,,,,,,,,,,,,,,,,,,,,,,,,,,,,9,62,47,1,0,0,response1disk,6,-1,-2,1,0,0,rectangle,-1,-2,1,0,0,1,1,"[302,56,222,221,51,170,283,265,149,166,37,31,111,6,317,91,222,200,321,278]",-1,-2,1,0,0,0,201,38,38,117,1,,,,,,,,,,,,,,,,,,,,,
,,,,,,,,,,,,,,,,,,,,,,,,,,,,,,,,,,,,,,,,,,,5ea5a65ce9c797598273b3ba,5fb5d9861124261d7ebf718c,2020-11-19_04h34.10.630,Colour_Similarity_Experiment,2020.1.2,Win32,60,5fb5945709dec70f2d595766,,,,,,,,,,,,,,,,,,,,PF,,,,,,,,6,2.86351,,,,,,,,,,,,,,,,,,,,,,,,,,,,8,63,53,1,0,0,response1disk,3,-9,-4,1,0,0,rectangle,-9,-4,1,0,0,1,6,"[302,56,222,221,51,170,283,265,149,166,37,31,111,6,317,91,222,200,321,278]",-9,-4,1,0,0,0,202,39,39,71,1,,,,,,,,,,,,,,,,,,,,,
,,,,,,,,,,,,,,,,,,,,,,,,,,,,,,,,,,,,,,,,,,,5ea5a65ce9c797598273b3ba,5fb5d9861124261d7ebf718c,2020-11-19_04h34.10.630,Colour_Similarity_Experiment,2020.1.2,Win32,60,5fb5945709dec70f2d595766,,,,,,,,,,,,,,,,,,,,FF,,,,,,,,7,2.58432,,,,,,,,,,,,,,,,,,,,,,,,,,,,3,46,63,1,0,0,response1disk,9,2,-7,1,0,0,rectangle,2,-7,1,0,0,1,5,"[302,56,222,221,51,170,283,265,149,166,37,31,111,6,317,91,222,200,321,278]",2,-7,1,0,0,0,203,40,40,143,1,,,,,,,,,,,,,,,,,,,,,
,,,,,,,,,,,,,,,,,,,,,,,,,,,,,,,,,,,,,,,,,,,5ea5a65ce9c797598273b3ba,5fb5d9861124261d7ebf718c,2020-11-19_04h34.10.630,Colour_Similarity_Experiment,2020.1.2,Win32,60,5fb5945709dec70f2d595766,,,,,,,,,,,,,,,,,,,,PF,,,,,,,,6,1.88634,,,,,,,,,,,,,,,,,,,,,,,,,,,,8,59,38,1,0,0,response1disk,6,-9,-4,1,0,0,rectangle,-9,-4,1,0,0,1,7,"[302,56,222,221,51,170,283,265,149,166,37,31,111,6,317,91,222,200,321,278]",-9,-4,1,0,0,0,204,41,41,161,1,,,,,,,,,,,,,,,,,,,,,
,,,,,,,,,,,,,,,,,,,,,,,,,,,,,,,,,,,,,,,,,,,5ea5a65ce9c797598273b3ba,5fb5d9861124261d7ebf718c,2020-11-19_04h34.10.630,Colour_Similarity_Experiment,2020.1.2,Win32,60,5fb5945709dec70f2d595766,,,,,,,,,,,,,,,,,,,,FF,,,,,,,,7,2.151825,,,,,,,,,,,,,,,,,,,,,,,,,,,,4,49,72,1,0,0,response1disk,9,-1,3,1,0,0,rectangle,-1,3,1,0,0,1,6,"[302,56,222,221,51,170,283,265,149,166,37,31,111,6,317,91,222,200,321,278]",-1,3,1,0,0,0,205,42,42,90,1,,,,,,,,,,,,,,,,,,,,,
,,,,,,,,,,,,,,,,,,,,,,,,,,,,,,,,,,,,,,,,,,,5ea5a65ce9c797598273b3ba,5fb5d9861124261d7ebf718c,2020-11-19_04h34.10.630,Colour_Similarity_Experiment,2020.1.2,Win32,60,5fb5945709dec70f2d595766,,,,,,,,,,,,,,,,,,,,FF,,,,,,,,1,2.302,,,,,,,,,,,,,,,,,,,,,,,,,,,,9,-79,23,1,0,0,response7disk,9,4,-7,1,0,0,rectangle,4,-7,1,0,0,1,1,"[302,56,222,221,51,170,283,265,149,166,37,31,111,6,317,91,222,200,321,278]",4,-7,1,0,0,0,206,43,43,17,1,,,,,,,,,,,,,,,,,,,,,
