key_resp.keys,key_resp.rt,key_resp_16.keys,key_resp_16.rt,key_resp_2.keys,key_resp_2.rt,X Scale,ratio_pxpermm,screen_size_x,screen_size_y,testsize,key_resp_3.keys,key_resp_3.rt,key_resp_4.keys,key_resp_4.rt,line_size,key_resp_5.keys,key_resp_5.rt,key_resp_6.keys,key_resp_6.rt,key_resp_8.keys,key_resp_8.rt,key_resp_7.keys,key_resp_7.rt,key_resp_12.keys,key_resp_12.rt,key_resp_11.keys,key_resp_11.rt,key_resp_18.keys,key_resp_18.rt,key_resp_21.keys,key_resp_21.rt,key_resp_13.keys,key_resp_13.rt,key_resp_19.keys,key_resp_19.rt,ballposx,viewer_distance,trials.thisRepN,trials.thisTrialN,trials.thisN,trials.thisIndex,trials.ran,participant,session,date,expName,psychopyVersion,OS,frameRate,study_id,viewerdistancecm,DVA_to_distance,radius_F,radius_P,r_F,R_P,key_resp_20.keys,key_resp_20.rt,key_resp_14.keys,key_resp_14.rt,key_resp_15.keys,key_resp_15.rt,key_resp_17.keys,key_resp_17.rt,key_resp_9.keys,key_resp_9.rt,key_resp_10.keys,key_resp_10.rt,Colour_1,Ecc,mouse_5.x,mouse_5.y,mouse_5.leftButton,mouse_5.midButton,mouse_5.rightButton,mouse_5.clicked_name,Colour_2,similarity,response_time,mouse_10.x,mouse_10.y,mouse_10.leftButton,mouse_10.midButton,mouse_10.rightButton,mouse_10.clicked_name,mouse_7.x,mouse_7.y,mouse_7.leftButton,mouse_7.midButton,mouse_7.rightButton,catchnumberprac,mouse_6.x,mouse_6.y,mouse_6.leftButton,mouse_6.midButton,mouse_6.rightButton,duringprac.thisRepN,duringprac.thisTrialN,duringprac.thisN,duringprac.thisIndex,duringprac.ran,mouse_7.clicked_name,mouse_6.clicked_name,key_resp_22.keys,key_resp_22.rt,Colour1,mouse.x,mouse.y,mouse.leftButton,mouse.midButton,mouse.rightButton,mouse.clicked_name,Colour2,mouse_2.x,mouse_2.y,mouse_2.leftButton,mouse_2.midButton,mouse_2.rightButton,mouse_2.clicked_name,mouse_3.x,mouse_3.y,mouse_3.leftButton,mouse_3.midButton,mouse_3.rightButton,catchresponse,catchnumber,catchtrialorder,mouse_11.x,mouse_11.y,mouse_11.leftButton,mouse_11.midButton,mouse_11.rightButton,trials_2.thisRepN,trialnumber,trials_2.thisTrialN,trials_2.thisN,trials_2.thisIndex,trials_2.ran,mouse_3.clicked_name,mouse_11.clicked_name,trials_3.thisRepN,trials_3.thisTrialN,trials_3.thisN,trials_3.thisIndex,trials_3.ran,answer1,rt1,answer2,rt2,answer3,rt3,answer4,rt4,answer5,rt5,answer6,rt6,answer7,rt7
space,4.58894,space,24.2843,space,13.20075,40,4,341.5,192,1366,space,45.648085,space,19.91338,80,space,17.742315,space,4.395655,space,2.79045,space,13.07013,space,13.80514,space,14.743895,space,9.90396,space,12.21715,space,2.777505,return,4.110045,4.098,564.7128086,0,0,0,0,1,5eac66ab9334300f4c37121b,5fb5d9463e35111d92abcbb7,2020-11-19_03h32.57.276,Colour_Similarity_Experiment,2020.1.2,Win32,60,5fb5945709dec70f2d595766,,,,,,,,,,,,,,,,,,,,,,,,,,,,,,,,,,,,,,,,,,,,,,,,,,,,,,,,,,,,,,,,,,,,,,,,,,,,,,,,,,,,,,,,,,,,,,,,,,,,,,,,,,,,,
,,,,,,,,,,,,,,,,,,,,,,,,,,,,,,,,,,return,4.446585,-36.882,607.3863206,1,0,1,0,1,5eac66ab9334300f4c37121b,5fb5d9463e35111d92abcbb7,2020-11-19_03h32.57.276,Colour_Similarity_Experiment,2020.1.2,Win32,60,5fb5945709dec70f2d595766,,,,,,,,,,,,,,,,,,,,,,,,,,,,,,,,,,,,,,,,,,,,,,,,,,,,,,,,,,,,,,,,,,,,,,,,,,,,,,,,,,,,,,,,,,,,,,,,,,,,,,,,,,,,,
,,,,,,,,,,,,,,,,,,,,,,,,,,,,,,,,,,return,4.617815,-57.372,628.7230765,2,0,2,0,1,5eac66ab9334300f4c37121b,5fb5d9463e35111d92abcbb7,2020-11-19_03h32.57.276,Colour_Similarity_Experiment,2020.1.2,Win32,60,5fb5945709dec70f2d595766,,,,,,,,,,,,,,,,,,,,,,,,,,,,,,,,,,,,,,,,,,,,,,,,,,,,,,,,,,,,,,,,,,,,,,,,,,,,,,,,,,,,,,,,,,,,,,,,,,,,,,,,,,,,,
,,,,,,,,,,,,,,,,,,,,,,,,,,,,,,,,,,return,4.251095,-12.294,581.7822134,3,0,3,0,1,5eac66ab9334300f4c37121b,5fb5d9463e35111d92abcbb7,2020-11-19_03h32.57.276,Colour_Similarity_Experiment,2020.1.2,Win32,60,5fb5945709dec70f2d595766,,,,,,,,,,,,,,,,,,,,,,,,,,,,,,,,,,,,,,,,,,,,,,,,,,,,,,,,,,,,,,,,,,,,,,,,,,,,,,,,,,,,,,,,,,,,,,,,,,,,,,,,,,,,,
,,,,,,,,,,,,,,,,,,,,,,,,,,,,,,,,,,return,4.63091,-59.421,630.8567521,4,0,4,0,1,5eac66ab9334300f4c37121b,5fb5d9463e35111d92abcbb7,2020-11-19_03h32.57.276,Colour_Similarity_Experiment,2020.1.2,Win32,60,5fb5945709dec70f2d595766,,,,,,,,,,,,,,,,,,,,,,,,,,,,,,,,,,,,,,,,,,,,,,,,,,,,,,,,,,,,,,,,,,,,,,,,,,,,,,,,,,,,,,,,,,,,,,,,,,,,,,,,,,,,,
,,,,,,,,,,,,,,,,,,,,,,,,,,,,,,,,,,,,,,,,,,,5eac66ab9334300f4c37121b,5fb5d9463e35111d92abcbb7,2020-11-19_03h32.57.276,Colour_Similarity_Experiment,2020.1.2,Win32,60,5fb5945709dec70f2d595766,60,10.47303521,62.83821127,418.9214085,41.89214085,188.5146338,space,4.65565,space,8.36313,space,30.35244,space,13.97996,space,5.62858,space,4.951345,3,PF,-37,-92,1,0,0,response5disk_5,5,3,6.66049,-10,-8,1,0,0,rectangle_8,-10,-8,1,0,0,2,-10,-8,1,0,0,0,0,0,4,1,,,,,,,,,,,,,,,,,,,,,,,,,,,,,,,,,,,,,,,,,,,,,,,,,,,,,,,,,,
,,,,,,,,,,,,,,,,,,,,,,,,,,,,,,,,,,,,,,,,,,,5eac66ab9334300f4c37121b,5fb5d9463e35111d92abcbb7,2020-11-19_03h32.57.276,Colour_Similarity_Experiment,2020.1.2,Win32,60,5fb5945709dec70f2d595766,,,,,,,,,,,,,,,,,,,6,FF,41,85,1,0,0,response1disk_5,1,7,3.824835,0,1,1,0,0,rectangle_8,0,1,1,0,0,2,0,1,1,0,0,0,1,1,3,1,,,,,,,,,,,,,,,,,,,,,,,,,,,,,,,,,,,,,,,,,,,,,,,,,,,,,,,,,,
,,,,,,,,,,,,,,,,,,,,,,,,,,,,,,,,,,,,,,,,,,,5eac66ab9334300f4c37121b,5fb5d9463e35111d92abcbb7,2020-11-19_03h32.57.276,Colour_Similarity_Experiment,2020.1.2,Win32,60,5fb5945709dec70f2d595766,,,,,,,,,,,,,,,,,,,2,PF,-47,-96,1,0,0,response5disk_5,4,3,5.980755,6,-1,1,0,0,rectangle_8,6,-1,1,0,0,2,6,-1,1,0,0,0,2,2,2,1,,,,,,,,,,,,,,,,,,,,,,,,,,,,,,,,,,,,,,,,,,,,,,,,,,,,,,,,,,
,,,,,,,,,,,,,,,,,,,,,,,,,,,,,,,,,,,,,,,,,,,5eac66ab9334300f4c37121b,5fb5d9463e35111d92abcbb7,2020-11-19_03h32.57.276,Colour_Similarity_Experiment,2020.1.2,Win32,60,5fb5945709dec70f2d595766,,,,,,,,,,,,,,,,,,,2,PF,65,-42,1,0,0,response3disk_5,1,5,2.712605,13,-5,1,0,0,rectangle_8,13,-5,1,0,0,2,13,-5,1,0,0,0,3,3,1,1,,,,,,,,,,,,,,,,,,,,,,,,,,,,,,,,,,,,,,,,,,,,,,,,,,,,,,,,,,
,,,,,,,,,,,,,,,,,,,,,,,,,,,,,,,,,,,,,,,,,,,5eac66ab9334300f4c37121b,5fb5d9463e35111d92abcbb7,2020-11-19_03h32.57.276,Colour_Similarity_Experiment,2020.1.2,Win32,60,5fb5945709dec70f2d595766,,,,,,,,,,,,,,,,,,,5,FF,-73,-60,1,0,0,response5disk_5,4,2,4.02535,4,4,1,0,0,rectangle_8,-84,-42,1,0,0,2,15,9,1,0,0,0,4,4,5,1,response5disk_7,rectangle_4,,,,,,,,,,,,,,,,,,,,,,,,,,,,,,,,,,,,,,,,,,,,,,,,,,,,,,,,
,,,,,,,,,,,,,,,,,,,,,,,,,,,,,,,,,,,,,,,,,,,5eac66ab9334300f4c37121b,5fb5d9463e35111d92abcbb7,2020-11-19_03h32.57.276,Colour_Similarity_Experiment,2020.1.2,Win32,60,5fb5945709dec70f2d595766,,,,,,,,,,,,,,,,,,,5,PF,-88,-65,1,0,0,response5disk_5,6,2,3.380115,4,2,1,0,0,rectangle_8,4,2,1,0,0,2,4,2,1,0,0,0,5,5,6,1,,,,,,,,,,,,,,,,,,,,,,,,,,,,,,,,,,,,,,,,,,,,,,,,,,,,,,,,,,
,,,,,,,,,,,,,,,,,,,,,,,,,,,,,,,,,,,,,,,,,,,5eac66ab9334300f4c37121b,5fb5d9463e35111d92abcbb7,2020-11-19_03h32.57.276,Colour_Similarity_Experiment,2020.1.2,Win32,60,5fb5945709dec70f2d595766,,,,,,,,,,,,,,,,,,,6,FF,87,36,1,0,0,response1disk_5,1,6,4.037975,-5,-6,1,0,0,rectangle_8,-5,-6,1,0,0,2,-5,-6,1,0,0,0,6,6,0,1,,,,,,,,,,,,,,,,,,,,,,,,,,,,,,,,,,,,,,,,,,,,,,,,,,,,,,,,,,
,,,,,,,,,,,,,,,,,,,,,,,,,,,,,,,,,,,,,,,,,,,5eac66ab9334300f4c37121b,5fb5d9463e35111d92abcbb7,2020-11-19_03h32.57.276,Colour_Similarity_Experiment,2020.1.2,Win32,60,5fb5945709dec70f2d595766,,,,,,,,,,,,,,,,,,,,FF,,,,,,,,4,4.44423,,,,,,,,,,,,,,,,,,,,,,,,,space,4.747265,7,61,-92,1,0,0,response3disk,5,-17,-5,1,0,0,rectangle,-17,-5,1,0,0,,1,"[305,293,191,174,22,302,56,68,243,264,178,209,143,133,81,80,193,103,30,163]",-17,-5,1,0,0,0,1,0,0,156,1,,,,,,,,,,,,,,,,,,,,,
,,,,,,,,,,,,,,,,,,,,,,,,,,,,,,,,,,,,,,,,,,,5eac66ab9334300f4c37121b,5fb5d9463e35111d92abcbb7,2020-11-19_03h32.57.276,Colour_Similarity_Experiment,2020.1.2,Win32,60,5fb5945709dec70f2d595766,,,,,,,,,,,,,,,,,,,,PF,,,,,,,,3,3.43721,,,,,,,,,,,,,,,,,,,,,,,,,,,9,-44,-88,1,0,0,response5disk,7,-2,-7,1,0,0,rectangle,-2,-7,1,0,0,,7,"[305,293,191,174,22,302,56,68,243,264,178,209,143,133,81,80,193,103,30,163]",-2,-7,1,0,0,0,2,1,1,121,1,,,,,,,,,,,,,,,,,,,,,
,,,,,,,,,,,,,,,,,,,,,,,,,,,,,,,,,,,,,,,,,,,5eac66ab9334300f4c37121b,5fb5d9463e35111d92abcbb7,2020-11-19_03h32.57.276,Colour_Similarity_Experiment,2020.1.2,Win32,60,5fb5945709dec70f2d595766,,,,,,,,,,,,,,,,,,,,FF,,,,,,,,3,3.04118,,,,,,,,,,,,,,,,,,,,,,,,,,,1,-27,-101,1,0,0,response5disk,8,-7,-1,1,0,0,rectangle,-7,-1,1,0,0,,6,"[305,293,191,174,22,302,56,68,243,264,178,209,143,133,81,80,193,103,30,163]",-7,-1,1,0,0,0,3,2,2,27,1,,,,,,,,,,,,,,,,,,,,,
,,,,,,,,,,,,,,,,,,,,,,,,,,,,,,,,,,,,,,,,,,,5eac66ab9334300f4c37121b,5fb5d9463e35111d92abcbb7,2020-11-19_03h32.57.276,Colour_Similarity_Experiment,2020.1.2,Win32,60,5fb5945709dec70f2d595766,,,,,,,,,,,,,,,,,,,,FF,,,,,,,,5,2.56147,,,,,,,,,,,,,,,,,,,,,,,,,,,4,84,-41,1,0,0,response3disk,2,-13,2,1,0,0,rectangle,-13,2,1,0,0,,3,"[305,293,191,174,22,302,56,68,243,264,178,209,143,133,81,80,193,103,30,163]",-13,2,1,0,0,0,4,3,3,13,1,,,,,,,,,,,,,,,,,,,,,
,,,,,,,,,,,,,,,,,,,,,,,,,,,,,,,,,,,,,,,,,,,5eac66ab9334300f4c37121b,5fb5d9463e35111d92abcbb7,2020-11-19_03h32.57.276,Colour_Similarity_Experiment,2020.1.2,Win32,60,5fb5945709dec70f2d595766,,,,,,,,,,,,,,,,,,,,PF,,,,,,,,0,2.05613,,,,,,,,,,,,,,,,,,,,,,,,,,,3,-47,73,1,0,0,response7disk,3,-7,1,1,0,0,rectangle,-7,1,1,0,0,,7,"[305,293,191,174,22,302,56,68,243,264,178,209,143,133,81,80,193,103,30,163]",-7,1,1,0,0,0,5,4,4,4,1,,,,,,,,,,,,,,,,,,,,,
,,,,,,,,,,,,,,,,,,,,,,,,,,,,,,,,,,,,,,,,,,,5eac66ab9334300f4c37121b,5fb5d9463e35111d92abcbb7,2020-11-19_03h32.57.276,Colour_Similarity_Experiment,2020.1.2,Win32,60,5fb5945709dec70f2d595766,,,,,,,,,,,,,,,,,,,,FF,,,,,,,,2,1.820025,,,,,,,,,,,,,,,,,,,,,,,,,,,5,-81,-45,1,0,0,response5disk,3,2,-6,1,0,0,rectangle,2,-6,1,0,0,,4,"[305,293,191,174,22,302,56,68,243,264,178,209,143,133,81,80,193,103,30,163]",2,-6,1,0,0,0,6,5,5,25,1,,,,,,,,,,,,,,,,,,,,,
,,,,,,,,,,,,,,,,,,,,,,,,,,,,,,,,,,,,,,,,,,,5eac66ab9334300f4c37121b,5fb5d9463e35111d92abcbb7,2020-11-19_03h32.57.276,Colour_Similarity_Experiment,2020.1.2,Win32,60,5fb5945709dec70f2d595766,,,,,,,,,,,,,,,,,,,,PF,,,,,,,,6,1.83488,,,,,,,,,,,,,,,,,,,,,,,,,,,8,90,42,1,0,0,response1disk,4,10,3,1,0,0,rectangle,10,3,1,0,0,,7,"[305,293,191,174,22,302,56,68,243,264,178,209,143,133,81,80,193,103,30,163]",10,3,1,0,0,0,7,6,6,78,1,,,,,,,,,,,,,,,,,,,,,
,,,,,,,,,,,,,,,,,,,,,,,,,,,,,,,,,,,,,,,,,,,5eac66ab9334300f4c37121b,5fb5d9463e35111d92abcbb7,2020-11-19_03h32.57.276,Colour_Similarity_Experiment,2020.1.2,Win32,60,5fb5945709dec70f2d595766,,,,,,,,,,,,,,,,,,,,PF,,,,,,,,3,2.833545,,,,,,,,,,,,,,,,,,,,,,,,,,,5,-58,-70,1,0,0,response5disk,3,2,-3,1,0,0,rectangle,2,-3,1,0,0,,7,"[305,293,191,174,22,302,56,68,243,264,178,209,143,133,81,80,193,103,30,163]",2,-3,1,0,0,0,8,7,7,109,1,,,,,,,,,,,,,,,,,,,,,
,,,,,,,,,,,,,,,,,,,,,,,,,,,,,,,,,,,,,,,,,,,5eac66ab9334300f4c37121b,5fb5d9463e35111d92abcbb7,2020-11-19_03h32.57.276,Colour_Similarity_Experiment,2020.1.2,Win32,60,5fb5945709dec70f2d595766,,,,,,,,,,,,,,,,,,,,FF,,,,,,,,3,2.441365,,,,,,,,,,,,,,,,,,,,,,,,,,,7,-42,-99,1,0,0,response5disk,8,0,0,1,0,0,rectangle,0,0,1,0,0,,3,"[305,293,191,174,22,302,56,68,243,264,178,209,143,133,81,80,193,103,30,163]",0,0,1,0,0,0,9,8,8,97,1,,,,,,,,,,,,,,,,,,,,,
,,,,,,,,,,,,,,,,,,,,,,,,,,,,,,,,,,,,,,,,,,,5eac66ab9334300f4c37121b,5fb5d9463e35111d92abcbb7,2020-11-19_03h32.57.276,Colour_Similarity_Experiment,2020.1.2,Win32,60,5fb5945709dec70f2d595766,,,,,,,,,,,,,,,,,,,,FF,,,,,,,,6,5.60373,,,,,,,,,,,,,,,,,,,,,,,,,,,9,98,29,1,0,0,response1disk,6,14,-7,1,0,0,rectangle,14,-7,1,0,0,,5,"[305,293,191,174,22,302,56,68,243,264,178,209,143,133,81,80,193,103,30,163]",14,-7,1,0,0,0,10,9,9,117,1,,,,,,,,,,,,,,,,,,,,,
,,,,,,,,,,,,,,,,,,,,,,,,,,,,,,,,,,,,,,,,,,,5eac66ab9334300f4c37121b,5fb5d9463e35111d92abcbb7,2020-11-19_03h32.57.276,Colour_Similarity_Experiment,2020.1.2,Win32,60,5fb5945709dec70f2d595766,,,,,,,,,,,,,,,,,,,,PF,,,,,,,,6,1.42909,,,,,,,,,,,,,,,,,,,,,,,,,,,3,81,27,1,0,0,response1disk,9,2,-2,1,0,0,rectangle,2,-2,1,0,0,,1,"[305,293,191,174,22,302,56,68,243,264,178,209,143,133,81,80,193,103,30,163]",2,-2,1,0,0,0,11,10,10,79,1,,,,,,,,,,,,,,,,,,,,,
,,,,,,,,,,,,,,,,,,,,,,,,,,,,,,,,,,,,,,,,,,,5eac66ab9334300f4c37121b,5fb5d9463e35111d92abcbb7,2020-11-19_03h32.57.276,Colour_Similarity_Experiment,2020.1.2,Win32,60,5fb5945709dec70f2d595766,,,,,,,,,,,,,,,,,,,,FF,,,,,,,,7,4.362385,,,,,,,,,,,,,,,,,,,,,,,,,,,3,69,77,1,0,0,response1disk,1,-6,-4,1,0,0,rectangle,-6,-4,1,0,0,,5,"[305,293,191,174,22,302,56,68,243,264,178,209,143,133,81,80,193,103,30,163]",-6,-4,1,0,0,0,12,11,11,125,1,,,,,,,,,,,,,,,,,,,,,
,,,,,,,,,,,,,,,,,,,,,,,,,,,,,,,,,,,,,,,,,,,5eac66ab9334300f4c37121b,5fb5d9463e35111d92abcbb7,2020-11-19_03h32.57.276,Colour_Similarity_Experiment,2020.1.2,Win32,60,5fb5945709dec70f2d595766,,,,,,,,,,,,,,,,,,,,FF,,,,,,,,7,2.604055,,,,,,,,,,,,,,,,,,,,,,,,,,,9,48,89,1,0,0,response1disk,3,-9,-3,1,0,0,rectangle,-9,-3,1,0,0,,4,"[305,293,191,174,22,302,56,68,243,264,178,209,143,133,81,80,193,103,30,163]",-9,-3,1,0,0,0,13,12,12,141,1,,,,,,,,,,,,,,,,,,,,,
,,,,,,,,,,,,,,,,,,,,,,,,,,,,,,,,,,,,,,,,,,,5eac66ab9334300f4c37121b,5fb5d9463e35111d92abcbb7,2020-11-19_03h32.57.276,Colour_Similarity_Experiment,2020.1.2,Win32,60,5fb5945709dec70f2d595766,,,,,,,,,,,,,,,,,,,,PF,,,,,,,,3,2.271635,,,,,,,,,,,,,,,,,,,,,,,,,,,2,-36,-92,1,0,0,response5disk,3,1,-5,1,0,0,rectangle,1,-5,1,0,0,,6,"[305,293,191,174,22,302,56,68,243,264,178,209,143,133,81,80,193,103,30,163]",1,-5,1,0,0,0,14,13,13,69,1,,,,,,,,,,,,,,,,,,,,,
,,,,,,,,,,,,,,,,,,,,,,,,,,,,,,,,,,,,,,,,,,,5eac66ab9334300f4c37121b,5fb5d9463e35111d92abcbb7,2020-11-19_03h32.57.276,Colour_Similarity_Experiment,2020.1.2,Win32,60,5fb5945709dec70f2d595766,,,,,,,,,,,,,,,,,,,,FF,,,,,,,,7,2.68116,,,,,,,,,,,,,,,,,,,,,,,,,,,8,69,84,1,0,0,response1disk,4,3,7,1,0,0,rectangle,3,7,1,0,0,,3,"[305,293,191,174,22,302,56,68,243,264,178,209,143,133,81,80,193,103,30,163]",3,7,1,0,0,0,15,14,14,88,1,,,,,,,,,,,,,,,,,,,,,
,,,,,,,,,,,,,,,,,,,,,,,,,,,,,,,,,,,,,,,,,,,5eac66ab9334300f4c37121b,5fb5d9463e35111d92abcbb7,2020-11-19_03h32.57.276,Colour_Similarity_Experiment,2020.1.2,Win32,60,5fb5945709dec70f2d595766,,,,,,,,,,,,,,,,,,,,FF,,,,,,,,0,1.632815,,,,,,,,,,,,,,,,,,,,,,,,,,,5,-54,87,1,0,0,response7disk,5,-1,9,1,0,0,rectangle,-1,9,1,0,0,,3,"[305,293,191,174,22,302,56,68,243,264,178,209,143,133,81,80,193,103,30,163]",-1,9,1,0,0,0,16,15,15,19,1,,,,,,,,,,,,,,,,,,,,,
,,,,,,,,,,,,,,,,,,,,,,,,,,,,,,,,,,,,,,,,,,,5eac66ab9334300f4c37121b,5fb5d9463e35111d92abcbb7,2020-11-19_03h32.57.276,Colour_Similarity_Experiment,2020.1.2,Win32,60,5fb5945709dec70f2d595766,,,,,,,,,,,,,,,,,,,,FF,,,,,,,,7,3.703595,,,,,,,,,,,,,,,,,,,,,,,,,,,2,55,87,1,0,0,response1disk,8,5,8,1,0,0,rectangle,5,8,1,0,0,,3,"[305,293,191,174,22,302,56,68,243,264,178,209,143,133,81,80,193,103,30,163]",5,8,1,0,0,0,17,16,16,62,1,,,,,,,,,,,,,,,,,,,,,
,,,,,,,,,,,,,,,,,,,,,,,,,,,,,,,,,,,,,,,,,,,5eac66ab9334300f4c37121b,5fb5d9463e35111d92abcbb7,2020-11-19_03h32.57.276,Colour_Similarity_Experiment,2020.1.2,Win32,60,5fb5945709dec70f2d595766,,,,,,,,,,,,,,,,,,,,FF,,,,,,,,3,3.839825,,,,,,,,,,,,,,,,,,,,,,,,,,,5,-53,-90,1,0,0,response5disk,6,-2,-5,1,0,0,rectangle,-2,-5,1,0,0,,6,"[305,293,191,174,22,302,56,68,243,264,178,209,143,133,81,80,193,103,30,163]",-2,-5,1,0,0,0,18,17,17,12,1,,,,,,,,,,,,,,,,,,,,,
,,,,,,,,,,,,,,,,,,,,,,,,,,,,,,,,,,,,,,,,,,,5eac66ab9334300f4c37121b,5fb5d9463e35111d92abcbb7,2020-11-19_03h32.57.276,Colour_Similarity_Experiment,2020.1.2,Win32,60,5fb5945709dec70f2d595766,,,,,,,,,,,,,,,,,,,,FF,,,,,,,,5,2.45711,,,,,,,,,,,,,,,,,,,,,,,,,,,8,94,-27,1,0,0,response3disk,7,6,-4,1,0,0,rectangle,6,-4,1,0,0,,7,"[305,293,191,174,22,302,56,68,243,264,178,209,143,133,81,80,193,103,30,163]",6,-4,1,0,0,0,19,18,18,86,1,,,,,,,,,,,,,,,,,,,,,
,,,,,,,,,,,,,,,,,,,,,,,,,,,,,,,,,,,,,,,,,,,5eac66ab9334300f4c37121b,5fb5d9463e35111d92abcbb7,2020-11-19_03h32.57.276,Colour_Similarity_Experiment,2020.1.2,Win32,60,5fb5945709dec70f2d595766,,,,,,,,,,,,,,,,,,,,FF,,,,,,,,7,1.735885,,,,,,,,,,,,,,,,,,,,,,,,,,,5,57,90,1,0,0,response1disk,2,2,0,1,0,0,rectangle,2,0,1,0,0,,7,"[305,293,191,174,22,302,56,68,243,264,178,209,143,133,81,80,193,103,30,163]",2,0,1,0,0,0,20,19,19,55,1,,,,,,,,,,,,,,,,,,,,,
,,,,,,,,,,,,,,,,,,,,,,,,,,,,,,,,,,,,,,,,,,,5eac66ab9334300f4c37121b,5fb5d9463e35111d92abcbb7,2020-11-19_03h32.57.276,Colour_Similarity_Experiment,2020.1.2,Win32,60,5fb5945709dec70f2d595766,,,,,,,,,,,,,,,,,,,,PF,,,,,,,,0,1.29909,,,,,,,,,,,,,,,,,,,,,,,,,,,8,-57,95,1,0,0,response7disk,8,-20,5,1,0,0,rectangle,-20,5,1,0,0,,7,"[305,293,191,174,22,302,56,68,243,264,178,209,143,133,81,80,193,103,30,163]",-20,5,1,0,0,0,21,20,20,153,1,,,,,,,,,,,,,,,,,,,,,
,,,,,,,,,,,,,,,,,,,,,,,,,,,,,,,,,,,,,,,,,,,5eac66ab9334300f4c37121b,5fb5d9463e35111d92abcbb7,2020-11-19_03h32.57.276,Colour_Similarity_Experiment,2020.1.2,Win32,60,5fb5945709dec70f2d595766,,,,,,,,,,,,,,,,,,,,PF,,,,,,,,7,1.642615,,,,,,,,,,,,,,,,,,,,,,,,,,,2,29,92,1,0,0,response1disk,7,-5,3,1,0,0,rectangle,-43,89,1,0,0,0,0,"[305,293,191,174,22,302,56,68,243,264,178,209,143,133,81,80,193,103,30,163]",-3,-4,1,0,0,0,22,21,21,107,1,response7disk_3,rectangle,,,,,,,,,,,,,,,,,,,
,,,,,,,,,,,,,,,,,,,,,,,,,,,,,,,,,,,,,,,,,,,5eac66ab9334300f4c37121b,5fb5d9463e35111d92abcbb7,2020-11-19_03h32.57.276,Colour_Similarity_Experiment,2020.1.2,Win32,60,5fb5945709dec70f2d595766,,,,,,,,,,,,,,,,,,,,FF,,,,,,,,7,1.553655,,,,,,,,,,,,,,,,,,,,,,,,,,,8,57,79,1,0,0,response1disk,1,4,-1,1,0,0,rectangle,4,-1,1,0,0,0,1,"[305,293,191,174,22,302,56,68,243,264,178,209,143,133,81,80,193,103,30,163]",4,-1,1,0,0,0,23,22,22,20,1,,,,,,,,,,,,,,,,,,,,,
,,,,,,,,,,,,,,,,,,,,,,,,,,,,,,,,,,,,,,,,,,,5eac66ab9334300f4c37121b,5fb5d9463e35111d92abcbb7,2020-11-19_03h32.57.276,Colour_Similarity_Experiment,2020.1.2,Win32,60,5fb5945709dec70f2d595766,,,,,,,,,,,,,,,,,,,,PF,,,,,,,,4,3.23999,,,,,,,,,,,,,,,,,,,,,,,,,,,2,27,-99,1,0,0,response3disk,1,-5,-6,1,0,0,rectangle,-5,-6,1,0,0,0,1,"[305,293,191,174,22,302,56,68,243,264,178,209,143,133,81,80,193,103,30,163]",-5,-6,1,0,0,0,24,23,23,9,1,,,,,,,,,,,,,,,,,,,,,
,,,,,,,,,,,,,,,,,,,,,,,,,,,,,,,,,,,,,,,,,,,5eac66ab9334300f4c37121b,5fb5d9463e35111d92abcbb7,2020-11-19_03h32.57.276,Colour_Similarity_Experiment,2020.1.2,Win32,60,5fb5945709dec70f2d595766,,,,,,,,,,,,,,,,,,,,FF,,,,,,,,3,3.28422,,,,,,,,,,,,,,,,,,,,,,,,,,,5,-59,-75,1,0,0,response5disk,4,-6,-6,1,0,0,rectangle,-6,-6,1,0,0,0,0,"[305,293,191,174,22,302,56,68,243,264,178,209,143,133,81,80,193,103,30,163]",-6,-6,1,0,0,0,25,24,24,8,1,,,,,,,,,,,,,,,,,,,,,
,,,,,,,,,,,,,,,,,,,,,,,,,,,,,,,,,,,,,,,,,,,5eac66ab9334300f4c37121b,5fb5d9463e35111d92abcbb7,2020-11-19_03h32.57.276,Colour_Similarity_Experiment,2020.1.2,Win32,60,5fb5945709dec70f2d595766,,,,,,,,,,,,,,,,,,,,FF,,,,,,,,5,4.35759,,,,,,,,,,,,,,,,,,,,,,,,,,,3,94,-15,1,0,0,response3disk,7,13,3,1,0,0,rectangle,13,3,1,0,0,0,0,"[305,293,191,174,22,302,56,68,243,264,178,209,143,133,81,80,193,103,30,163]",13,3,1,0,0,0,26,25,25,118,1,,,,,,,,,,,,,,,,,,,,,
,,,,,,,,,,,,,,,,,,,,,,,,,,,,,,,,,,,,,,,,,,,5eac66ab9334300f4c37121b,5fb5d9463e35111d92abcbb7,2020-11-19_03h32.57.276,Colour_Similarity_Experiment,2020.1.2,Win32,60,5fb5945709dec70f2d595766,,,,,,,,,,,,,,,,,,,,FF,,,,,,,,7,1.81689,,,,,,,,,,,,,,,,,,,,,,,,,,,7,78,88,1,0,0,response1disk,2,9,0,1,0,0,rectangle,9,0,1,0,0,0,5,"[305,293,191,174,22,302,56,68,243,264,178,209,143,133,81,80,193,103,30,163]",9,0,1,0,0,0,27,26,26,138,1,,,,,,,,,,,,,,,,,,,,,
,,,,,,,,,,,,,,,,,,,,,,,,,,,,,,,,,,,,,,,,,,,5eac66ab9334300f4c37121b,5fb5d9463e35111d92abcbb7,2020-11-19_03h32.57.276,Colour_Similarity_Experiment,2020.1.2,Win32,60,5fb5945709dec70f2d595766,,,,,,,,,,,,,,,,,,,,PF,,,,,,,,7,1.428355,,,,,,,,,,,,,,,,,,,,,,,,,,,4,47,95,1,0,0,response1disk,1,-7,1,1,0,0,rectangle,-7,1,1,0,0,0,1,"[305,293,191,174,22,302,56,68,243,264,178,209,143,133,81,80,193,103,30,163]",-7,1,1,0,0,0,28,27,27,115,1,,,,,,,,,,,,,,,,,,,,,
,,,,,,,,,,,,,,,,,,,,,,,,,,,,,,,,,,,,,,,,,,,5eac66ab9334300f4c37121b,5fb5d9463e35111d92abcbb7,2020-11-19_03h32.57.276,Colour_Similarity_Experiment,2020.1.2,Win32,60,5fb5945709dec70f2d595766,,,,,,,,,,,,,,,,,,,,PF,,,,,,,,7,1.550925,,,,,,,,,,,,,,,,,,,,,,,,,,,1,40,94,1,0,0,response1disk,6,-8,-6,1,0,0,rectangle,-8,-6,1,0,0,0,5,"[305,293,191,174,22,302,56,68,243,264,178,209,143,133,81,80,193,103,30,163]",-8,-6,1,0,0,0,29,28,28,144,1,,,,,,,,,,,,,,,,,,,,,
,,,,,,,,,,,,,,,,,,,,,,,,,,,,,,,,,,,,,,,,,,,5eac66ab9334300f4c37121b,5fb5d9463e35111d92abcbb7,2020-11-19_03h32.57.276,Colour_Similarity_Experiment,2020.1.2,Win32,60,5fb5945709dec70f2d595766,,,,,,,,,,,,,,,,,,,,FF,,,,,,,,4,3.0056,,,,,,,,,,,,,,,,,,,,,,,,,,,9,45,-102,1,0,0,response3disk,1,-7,8,1,0,0,rectangle,-31,-88,1,0,0,3,3,"[305,293,191,174,22,302,56,68,243,264,178,209,143,133,81,80,193,103,30,163]",-17,0,1,0,0,0,30,29,29,111,1,response5disk_3,rectangle,,,,,,,,,,,,,,,,,,,
,,,,,,,,,,,,,,,,,,,,,,,,,,,,,,,,,,,,,,,,,,,5eac66ab9334300f4c37121b,5fb5d9463e35111d92abcbb7,2020-11-19_03h32.57.276,Colour_Similarity_Experiment,2020.1.2,Win32,60,5fb5945709dec70f2d595766,,,,,,,,,,,,,,,,,,,,FF,,,,,,,,6,4.13913,,,,,,,,,,,,,,,,,,,,,,,,,,,7,100,29,1,0,0,response1disk,3,2,-1,1,0,0,rectangle,2,-1,1,0,0,3,6,"[305,293,191,174,22,302,56,68,243,264,178,209,143,133,81,80,193,103,30,163]",2,-1,1,0,0,0,31,30,30,73,1,,,,,,,,,,,,,,,,,,,,,
,,,,,,,,,,,,,,,,,,,,,,,,,,,,,,,,,,,,,,,,,,,5eac66ab9334300f4c37121b,5fb5d9463e35111d92abcbb7,2020-11-19_03h32.57.276,Colour_Similarity_Experiment,2020.1.2,Win32,60,5fb5945709dec70f2d595766,,,,,,,,,,,,,,,,,,,,FF,,,,,,,,6,1.519455,,,,,,,,,,,,,,,,,,,,,,,,,,,3,110,46,1,0,0,response1disk,9,0,1,1,0,0,rectangle,0,1,1,0,0,3,0,"[305,293,191,174,22,302,56,68,243,264,178,209,143,133,81,80,193,103,30,163]",0,1,1,0,0,0,32,31,31,143,1,,,,,,,,,,,,,,,,,,,,,
,,,,,,,,,,,,,,,,,,,,,,,,,,,,,,,,,,,,,,,,,,,5eac66ab9334300f4c37121b,5fb5d9463e35111d92abcbb7,2020-11-19_03h32.57.276,Colour_Similarity_Experiment,2020.1.2,Win32,60,5fb5945709dec70f2d595766,,,,,,,,,,,,,,,,,,,,PF,,,,,,,,6,1.482405,,,,,,,,,,,,,,,,,,,,,,,,,,,8,94,53,1,0,0,response1disk,3,1,-1,1,0,0,rectangle,1,-1,1,0,0,3,4,"[305,293,191,174,22,302,56,68,243,264,178,209,143,133,81,80,193,103,30,163]",1,-1,1,0,0,0,33,32,32,71,1,,,,,,,,,,,,,,,,,,,,,
,,,,,,,,,,,,,,,,,,,,,,,,,,,,,,,,,,,,,,,,,,,5eac66ab9334300f4c37121b,5fb5d9463e35111d92abcbb7,2020-11-19_03h32.57.276,Colour_Similarity_Experiment,2020.1.2,Win32,60,5fb5945709dec70f2d595766,,,,,,,,,,,,,,,,,,,,PF,,,,,,,,3,1.403265,,,,,,,,,,,,,,,,,,,,,,,,,,,4,-65,-94,1,0,0,response5disk,5,-5,-6,1,0,0,rectangle,-5,-6,1,0,0,3,6,"[305,293,191,174,22,302,56,68,243,264,178,209,143,133,81,80,193,103,30,163]",-5,-6,1,0,0,0,34,33,33,49,1,,,,,,,,,,,,,,,,,,,,,
,,,,,,,,,,,,,,,,,,,,,,,,,,,,,,,,,,,,,,,,,,,5eac66ab9334300f4c37121b,5fb5d9463e35111d92abcbb7,2020-11-19_03h32.57.276,Colour_Similarity_Experiment,2020.1.2,Win32,60,5fb5945709dec70f2d595766,,,,,,,,,,,,,,,,,,,,FF,,,,,,,,4,1.56738,,,,,,,,,,,,,,,,,,,,,,,,,,,8,47,-75,1,0,0,response3disk,6,1,-3,1,0,0,rectangle,1,-3,1,0,0,3,1,"[305,293,191,174,22,302,56,68,243,264,178,209,143,133,81,80,193,103,30,163]",1,-3,1,0,0,0,35,34,34,37,1,,,,,,,,,,,,,,,,,,,,,
,,,,,,,,,,,,,,,,,,,,,,,,,,,,,,,,,,,,,,,,,,,5eac66ab9334300f4c37121b,5fb5d9463e35111d92abcbb7,2020-11-19_03h32.57.276,Colour_Similarity_Experiment,2020.1.2,Win32,60,5fb5945709dec70f2d595766,,,,,,,,,,,,,,,,,,,,PF,,,,,,,,3,1.39506,,,,,,,,,,,,,,,,,,,,,,,,,,,5,-41,-73,1,0,0,response5disk,4,4,2,1,0,0,rectangle,4,2,1,0,0,3,4,"[305,293,191,174,22,302,56,68,243,264,178,209,143,133,81,80,193,103,30,163]",4,2,1,0,0,0,36,35,35,54,1,,,,,,,,,,,,,,,,,,,,,
,,,,,,,,,,,,,,,,,,,,,,,,,,,,,,,,,,,,,,,,,,,5eac66ab9334300f4c37121b,5fb5d9463e35111d92abcbb7,2020-11-19_03h32.57.276,Colour_Similarity_Experiment,2020.1.2,Win32,60,5fb5945709dec70f2d595766,,,,,,,,,,,,,,,,,,,,FF,,,,,,,,7,1.548945,,,,,,,,,,,,,,,,,,,,,,,,,,,1,62,104,1,0,0,response1disk,4,10,1,1,0,0,rectangle,10,1,1,0,0,3,0,"[305,293,191,174,22,302,56,68,243,264,178,209,143,133,81,80,193,103,30,163]",10,1,1,0,0,0,37,36,36,135,1,,,,,,,,,,,,,,,,,,,,,
,,,,,,,,,,,,,,,,,,,,,,,,,,,,,,,,,,,,,,,,,,,5eac66ab9334300f4c37121b,5fb5d9463e35111d92abcbb7,2020-11-19_03h32.57.276,Colour_Similarity_Experiment,2020.1.2,Win32,60,5fb5945709dec70f2d595766,,,,,,,,,,,,,,,,,,,,PF,,,,,,,,7,1.56544,,,,,,,,,,,,,,,,,,,,,,,,,,,7,61,90,1,0,0,response1disk,9,15,-1,1,0,0,rectangle,15,-1,1,0,0,3,0,"[305,293,191,174,22,302,56,68,243,264,178,209,143,133,81,80,193,103,30,163]",15,-1,1,0,0,0,38,37,37,10,1,,,,,,,,,,,,,,,,,,,,,
,,,,,,,,,,,,,,,,,,,,,,,,,,,,,,,,,,,,,,,,,,,5eac66ab9334300f4c37121b,5fb5d9463e35111d92abcbb7,2020-11-19_03h32.57.276,Colour_Similarity_Experiment,2020.1.2,Win32,60,5fb5945709dec70f2d595766,,,,,,,,,,,,,,,,,,,,FF,,,,,,,,3,1.560085,,,,,,,,,,,,,,,,,,,,,,,,,,,4,-29,-85,1,0,0,response5disk,5,5,11,1,0,0,rectangle,5,11,1,0,0,3,4,"[305,293,191,174,22,302,56,68,243,264,178,209,143,133,81,80,193,103,30,163]",5,11,1,0,0,0,39,38,38,116,1,,,,,,,,,,,,,,,,,,,,,
,,,,,,,,,,,,,,,,,,,,,,,,,,,,,,,,,,,,,,,,,,,5eac66ab9334300f4c37121b,5fb5d9463e35111d92abcbb7,2020-11-19_03h32.57.276,Colour_Similarity_Experiment,2020.1.2,Win32,60,5fb5945709dec70f2d595766,,,,,,,,,,,,,,,,,,,,FF,,,,,,,,5,3.87224,,,,,,,,,,,,,,,,,,,,,,,,,,,2,95,-30,1,0,0,response3disk,9,14,3,1,0,0,rectangle,14,3,1,0,0,3,0,"[305,293,191,174,22,302,56,68,243,264,178,209,143,133,81,80,193,103,30,163]",14,3,1,0,0,0,40,39,39,72,1,,,,,,,,,,,,,,,,,,,,,
,,,,,,,,,,,,,,,,,,,,,,,,,,,,,,,,,,,,,,,,,,,5eac66ab9334300f4c37121b,5fb5d9463e35111d92abcbb7,2020-11-19_03h32.57.276,Colour_Similarity_Experiment,2020.1.2,Win32,60,5fb5945709dec70f2d595766,,,,,,,,,,,,,,,,,,,,PF,,,,,,,,0,1.770665,,,,,,,,,,,,,,,,,,,,,,,,,,,5,-48,100,1,0,0,response7disk,5,-12,-3,1,0,0,rectangle,-12,-3,1,0,0,3,3,"[305,293,191,174,22,302,56,68,243,264,178,209,143,133,81,80,193,103,30,163]",-12,-3,1,0,0,0,41,40,40,94,1,,,,,,,,,,,,,,,,,,,,,
,,,,,,,,,,,,,,,,,,,,,,,,,,,,,,,,,,,,,,,,,,,5eac66ab9334300f4c37121b,5fb5d9463e35111d92abcbb7,2020-11-19_03h32.57.276,Colour_Similarity_Experiment,2020.1.2,Win32,60,5fb5945709dec70f2d595766,,,,,,,,,,,,,,,,,,,,FF,,,,,,,,7,1.543955,,,,,,,,,,,,,,,,,,,,,,,,,,,8,36,91,1,0,0,response1disk,3,14,5,1,0,0,rectangle,14,5,1,0,0,3,3,"[305,293,191,174,22,302,56,68,243,264,178,209,143,133,81,80,193,103,30,163]",14,5,1,0,0,0,42,41,41,154,1,,,,,,,,,,,,,,,,,,,,,
,,,,,,,,,,,,,,,,,,,,,,,,,,,,,,,,,,,,,,,,,,,5eac66ab9334300f4c37121b,5fb5d9463e35111d92abcbb7,2020-11-19_03h32.57.276,Colour_Similarity_Experiment,2020.1.2,Win32,60,5fb5945709dec70f2d595766,,,,,,,,,,,,,,,,,,,,FF,,,,,,,,7,1.65874,,,,,,,,,,,,,,,,,,,,,,,,,,,4,34,72,1,0,0,response1disk,1,12,1,1,0,0,rectangle,12,1,1,0,0,3,6,"[305,293,191,174,22,302,56,68,243,264,178,209,143,133,81,80,193,103,30,163]",12,1,1,0,0,0,43,42,42,102,1,,,,,,,,,,,,,,,,,,,,,
,,,,,,,,,,,,,,,,,,,,,,,,,,,,,,,,,,,,,,,,,,,5eac66ab9334300f4c37121b,5fb5d9463e35111d92abcbb7,2020-11-19_03h32.57.276,Colour_Similarity_Experiment,2020.1.2,Win32,60,5fb5945709dec70f2d595766,,,,,,,,,,,,,,,,,,,,PF,,,,,,,,5,2.478325,,,,,,,,,,,,,,,,,,,,,,,,,,,6,87,-30,1,0,0,response3disk,4,10,2,1,0,0,rectangle,10,2,1,0,0,3,6,"[305,293,191,174,22,302,56,68,243,264,178,209,143,133,81,80,193,103,30,163]",10,2,1,0,0,0,44,43,43,33,1,,,,,,,,,,,,,,,,,,,,,
,,,,,,,,,,,,,,,,,,,,,,,,,,,,,,,,,,,,,,,,,,,5eac66ab9334300f4c37121b,5fb5d9463e35111d92abcbb7,2020-11-19_03h32.57.276,Colour_Similarity_Experiment,2020.1.2,Win32,60,5fb5945709dec70f2d595766,,,,,,,,,,,,,,,,,,,,FF,,,,,,,,7,1.245695,,,,,,,,,,,,,,,,,,,,,,,,,,,2,49,94,1,0,0,response1disk,7,3,4,1,0,0,rectangle,3,4,1,0,0,3,5,"[305,293,191,174,22,302,56,68,243,264,178,209,143,133,81,80,193,103,30,163]",3,4,1,0,0,0,45,44,44,63,1,,,,,,,,,,,,,,,,,,,,,
,,,,,,,,,,,,,,,,,,,,,,,,,,,,,,,,,,,,,,,,,,,5eac66ab9334300f4c37121b,5fb5d9463e35111d92abcbb7,2020-11-19_03h32.57.276,Colour_Similarity_Experiment,2020.1.2,Win32,60,5fb5945709dec70f2d595766,,,,,,,,,,,,,,,,,,,,PF,,,,,,,,7,1.33293,,,,,,,,,,,,,,,,,,,,,,,,,,,8,28,79,1,0,0,response1disk,2,-1,8,1,0,0,rectangle,-1,8,1,0,0,3,2,"[305,293,191,174,22,302,56,68,243,264,178,209,143,133,81,80,193,103,30,163]",-1,8,1,0,0,0,46,45,45,83,1,,,,,,,,,,,,,,,,,,,,,
,,,,,,,,,,,,,,,,,,,,,,,,,,,,,,,,,,,,,,,,,,,5eac66ab9334300f4c37121b,5fb5d9463e35111d92abcbb7,2020-11-19_03h32.57.276,Colour_Similarity_Experiment,2020.1.2,Win32,60,5fb5945709dec70f2d595766,,,,,,,,,,,,,,,,,,,,FF,,,,,,,,7,1.369635,,,,,,,,,,,,,,,,,,,,,,,,,,,8,29,86,1,0,0,response1disk,5,-3,2,1,0,0,rectangle,-3,2,1,0,0,3,5,"[305,293,191,174,22,302,56,68,243,264,178,209,143,133,81,80,193,103,30,163]",-3,2,1,0,0,0,47,46,46,152,1,,,,,,,,,,,,,,,,,,,,,
,,,,,,,,,,,,,,,,,,,,,,,,,,,,,,,,,,,,,,,,,,,5eac66ab9334300f4c37121b,5fb5d9463e35111d92abcbb7,2020-11-19_03h32.57.276,Colour_Similarity_Experiment,2020.1.2,Win32,60,5fb5945709dec70f2d595766,,,,,,,,,,,,,,,,,,,,PF,,,,,,,,0,1.624875,,,,,,,,,,,,,,,,,,,,,,,,,,,7,-46,89,1,0,0,response7disk,7,-10,8,1,0,0,rectangle,-10,8,1,0,0,3,7,"[305,293,191,174,22,302,56,68,243,264,178,209,143,133,81,80,193,103,30,163]",-10,8,1,0,0,0,48,47,47,51,1,,,,,,,,,,,,,,,,,,,,,
,,,,,,,,,,,,,,,,,,,,,,,,,,,,,,,,,,,,,,,,,,,5eac66ab9334300f4c37121b,5fb5d9463e35111d92abcbb7,2020-11-19_03h32.57.276,Colour_Similarity_Experiment,2020.1.2,Win32,60,5fb5945709dec70f2d595766,,,,,,,,,,,,,,,,,,,,PF,,,,,,,,6,1.80297,,,,,,,,,,,,,,,,,,,,,,,,,,,4,97,54,1,0,0,response1disk,9,2,-2,1,0,0,rectangle,2,-2,1,0,0,3,3,"[305,293,191,174,22,302,56,68,243,264,178,209,143,133,81,80,193,103,30,163]",2,-2,1,0,0,0,49,48,48,75,1,,,,,,,,,,,,,,,,,,,,,
,,,,,,,,,,,,,,,,,,,,,,,,,,,,,,,,,,,,,,,,,,,5eac66ab9334300f4c37121b,5fb5d9463e35111d92abcbb7,2020-11-19_03h32.57.276,Colour_Similarity_Experiment,2020.1.2,Win32,60,5fb5945709dec70f2d595766,,,,,,,,,,,,,,,,,,,,PF,,,,,,,,2,2.529245,,,,,,,,,,,,,,,,,,,,,,,,,,,5,-88,-47,1,0,0,response5disk,6,-9,5,1,0,0,rectangle,-9,5,1,0,0,3,1,"[305,293,191,174,22,302,56,68,243,264,178,209,143,133,81,80,193,103,30,163]",-9,5,1,0,0,0,50,49,49,103,1,,,,,,,,,,,,,,,,,,,,,
,,,,,,,,,,,,,,,,,,,,,,,,,,,,,,,,,,,,,,,,,,,5eac66ab9334300f4c37121b,5fb5d9463e35111d92abcbb7,2020-11-19_03h32.57.276,Colour_Similarity_Experiment,2020.1.2,Win32,60,5fb5945709dec70f2d595766,,,,,,,,,,,,,,,,,,,,PF,,,,,,,,4,9.84165,,,,,,,,,,,,,,,,,,,,,,,,,,,9,35,-89,1,0,0,response3disk,3,-10,-9,1,0,0,rectangle,-10,-9,1,0,0,3,2,"[305,293,191,174,22,302,56,68,243,264,178,209,143,133,81,80,193,103,30,163]",-10,-9,1,0,0,0,51,50,50,119,1,,,,,,,,,,,,,,,,,,,,,
,,,,,,,,,,,,,,,,,,,,,,,,,,,,,,,,,,,,,,,,,,,5eac66ab9334300f4c37121b,5fb5d9463e35111d92abcbb7,2020-11-19_03h32.57.276,Colour_Similarity_Experiment,2020.1.2,Win32,60,5fb5945709dec70f2d595766,,,,,,,,,,,,,,,,,,,,PF,,,,,,,,7,1.80898,,,,,,,,,,,,,,,,,,,,,,,,,,,1,22,68,1,0,0,response1disk,5,-14,0,1,0,0,rectangle,-14,0,1,0,0,3,6,"[305,293,191,174,22,302,56,68,243,264,178,209,143,133,81,80,193,103,30,163]",-14,0,1,0,0,0,52,51,51,28,1,,,,,,,,,,,,,,,,,,,,,
,,,,,,,,,,,,,,,,,,,,,,,,,,,,,,,,,,,,,,,,,,,5eac66ab9334300f4c37121b,5fb5d9463e35111d92abcbb7,2020-11-19_03h32.57.276,Colour_Similarity_Experiment,2020.1.2,Win32,60,5fb5945709dec70f2d595766,,,,,,,,,,,,,,,,,,,,PF,,,,,,,,4,2.07083,,,,,,,,,,,,,,,,,,,,,,,,,,,5,36,-81,1,0,0,response3disk,7,-16,2,1,0,0,rectangle,-16,2,1,0,0,3,4,"[305,293,191,174,22,302,56,68,243,264,178,209,143,133,81,80,193,103,30,163]",-16,2,1,0,0,0,53,52,52,146,1,,,,,,,,,,,,,,,,,,,,,
,,,,,,,,,,,,,,,,,,,,,,,,,,,,,,,,,,,,,,,,,,,5eac66ab9334300f4c37121b,5fb5d9463e35111d92abcbb7,2020-11-19_03h32.57.276,Colour_Similarity_Experiment,2020.1.2,Win32,60,5fb5945709dec70f2d595766,,,,,,,,,,,,,,,,,,,,FF,,,,,,,,7,1.17179,,,,,,,,,,,,,,,,,,,,,,,,,,,4,35,87,1,0,0,response1disk,8,-2,1,1,0,0,rectangle,-2,1,1,0,0,3,4,"[305,293,191,174,22,302,56,68,243,264,178,209,143,133,81,80,193,103,30,163]",-2,1,1,0,0,0,54,53,53,35,1,,,,,,,,,,,,,,,,,,,,,
,,,,,,,,,,,,,,,,,,,,,,,,,,,,,,,,,,,,,,,,,,,5eac66ab9334300f4c37121b,5fb5d9463e35111d92abcbb7,2020-11-19_03h32.57.276,Colour_Similarity_Experiment,2020.1.2,Win32,60,5fb5945709dec70f2d595766,,,,,,,,,,,,,,,,,,,,FF,,,,,,,,4,1.39625,,,,,,,,,,,,,,,,,,,,,,,,,,,2,61,-92,1,0,0,response3disk,1,1,-1,1,0,0,rectangle,1,-1,1,0,0,3,6,"[305,293,191,174,22,302,56,68,243,264,178,209,143,133,81,80,193,103,30,163]",1,-1,1,0,0,0,55,54,54,85,1,,,,,,,,,,,,,,,,,,,,,
,,,,,,,,,,,,,,,,,,,,,,,,,,,,,,,,,,,,,,,,,,,5eac66ab9334300f4c37121b,5fb5d9463e35111d92abcbb7,2020-11-19_03h32.57.276,Colour_Similarity_Experiment,2020.1.2,Win32,60,5fb5945709dec70f2d595766,,,,,,,,,,,,,,,,,,,,FF,,,,,,,,0,1.443635,,,,,,,,,,,,,,,,,,,,,,,,,,,1,-34,87,1,0,0,response7disk,1,5,1,1,0,0,rectangle,-82,37,1,0,0,1,1,"[305,293,191,174,22,302,56,68,243,264,178,209,143,133,81,80,193,103,30,163]",-1,0,1,0,0,0,56,55,55,151,1,response7disk_3,rectangle,,,,,,,,,,,,,,,,,,,
,,,,,,,,,,,,,,,,,,,,,,,,,,,,,,,,,,,,,,,,,,,5eac66ab9334300f4c37121b,5fb5d9463e35111d92abcbb7,2020-11-19_03h32.57.276,Colour_Similarity_Experiment,2020.1.2,Win32,60,5fb5945709dec70f2d595766,,,,,,,,,,,,,,,,,,,,PF,,,,,,,,7,1.212385,,,,,,,,,,,,,,,,,,,,,,,,,,,1,61,104,1,0,0,response1disk,3,11,6,1,0,0,rectangle,11,6,1,0,0,1,7,"[305,293,191,174,22,302,56,68,243,264,178,209,143,133,81,80,193,103,30,163]",11,6,1,0,0,0,57,56,56,1,1,,,,,,,,,,,,,,,,,,,,,
,,,,,,,,,,,,,,,,,,,,,,,,,,,,,,,,,,,,,,,,,,,5eac66ab9334300f4c37121b,5fb5d9463e35111d92abcbb7,2020-11-19_03h32.57.276,Colour_Similarity_Experiment,2020.1.2,Win32,60,5fb5945709dec70f2d595766,,,,,,,,,,,,,,,,,,,,FF,,,,,,,,3,5.000275,,,,,,,,,,,,,,,,,,,,,,,,,,,2,-67,-99,1,0,0,response5disk,3,-11,-1,1,0,0,rectangle,-11,-1,1,0,0,1,2,"[305,293,191,174,22,302,56,68,243,264,178,209,143,133,81,80,193,103,30,163]",-11,-1,1,0,0,0,58,57,57,104,1,,,,,,,,,,,,,,,,,,,,,
,,,,,,,,,,,,,,,,,,,,,,,,,,,,,,,,,,,,,,,,,,,5eac66ab9334300f4c37121b,5fb5d9463e35111d92abcbb7,2020-11-19_03h32.57.276,Colour_Similarity_Experiment,2020.1.2,Win32,60,5fb5945709dec70f2d595766,,,,,,,,,,,,,,,,,,,,PF,,,,,,,,4,1.985665,,,,,,,,,,,,,,,,,,,,,,,,,,,6,60,-78,1,0,0,response3disk,8,1,3,1,0,0,rectangle,1,3,1,0,0,1,2,"[305,293,191,174,22,302,56,68,243,264,178,209,143,133,81,80,193,103,30,163]",1,3,1,0,0,0,59,58,58,64,1,,,,,,,,,,,,,,,,,,,,,
,,,,,,,,,,,,,,,,,,,,,,,,,,,,,,,,,,,,,,,,,,,5eac66ab9334300f4c37121b,5fb5d9463e35111d92abcbb7,2020-11-19_03h32.57.276,Colour_Similarity_Experiment,2020.1.2,Win32,60,5fb5945709dec70f2d595766,,,,,,,,,,,,,,,,,,,,PF,,,,,,,,7,1.27927,,,,,,,,,,,,,,,,,,,,,,,,,,,6,39,84,1,0,0,response1disk,2,1,8,1,0,0,rectangle,1,8,1,0,0,1,2,"[305,293,191,174,22,302,56,68,243,264,178,209,143,133,81,80,193,103,30,163]",1,8,1,0,0,0,60,59,59,130,1,,,,,,,,,,,,,,,,,,,,,
,,,,,,,,,,,,,,,,,,,,,,,,,,,,,,,,,,,,,,,,,,,5eac66ab9334300f4c37121b,5fb5d9463e35111d92abcbb7,2020-11-19_03h32.57.276,Colour_Similarity_Experiment,2020.1.2,Win32,60,5fb5945709dec70f2d595766,,,,,,,,,,,,,,,,,,,,PF,,,,,,,,6,3.25144,,,,,,,,,,,,,,,,,,,,,,,,,,,1,72,36,1,0,0,response1disk,8,19,4,1,0,0,rectangle,19,4,1,0,0,1,4,"[305,293,191,174,22,302,56,68,243,264,178,209,143,133,81,80,193,103,30,163]",19,4,1,0,0,0,61,60,60,65,1,,,,,,,,,,,,,,,,,,,,,
,,,,,,,,,,,,,,,,,,,,,,,,,,,,,,,,,,,,,,,,,,,5eac66ab9334300f4c37121b,5fb5d9463e35111d92abcbb7,2020-11-19_03h32.57.276,Colour_Similarity_Experiment,2020.1.2,Win32,60,5fb5945709dec70f2d595766,,,,,,,,,,,,,,,,,,,,PF,,,,,,,,0,1.2789,,,,,,,,,,,,,,,,,,,,,,,,,,,2,-17,75,1,0,0,response7disk,2,-4,-2,1,0,0,rectangle,-4,-2,1,0,0,1,6,"[305,293,191,174,22,302,56,68,243,264,178,209,143,133,81,80,193,103,30,163]",-4,-2,1,0,0,0,62,61,61,14,1,,,,,,,,,,,,,,,,,,,,,
,,,,,,,,,,,,,,,,,,,,,,,,,,,,,,,,,,,,,,,,,,,5eac66ab9334300f4c37121b,5fb5d9463e35111d92abcbb7,2020-11-19_03h32.57.276,Colour_Similarity_Experiment,2020.1.2,Win32,60,5fb5945709dec70f2d595766,,,,,,,,,,,,,,,,,,,,PF,,,,,,,,6,1.62395,,,,,,,,,,,,,,,,,,,,,,,,,,,9,63,33,1,0,0,response1disk,2,0,8,1,0,0,rectangle,0,8,1,0,0,1,6,"[305,293,191,174,22,302,56,68,243,264,178,209,143,133,81,80,193,103,30,163]",0,8,1,0,0,0,63,62,62,157,1,,,,,,,,,,,,,,,,,,,,,
,,,,,,,,,,,,,,,,,,,,,,,,,,,,,,,,,,,,,,,,,,,5eac66ab9334300f4c37121b,5fb5d9463e35111d92abcbb7,2020-11-19_03h32.57.276,Colour_Similarity_Experiment,2020.1.2,Win32,60,5fb5945709dec70f2d595766,,,,,,,,,,,,,,,,,,,,PF,,,,,,,,5,1.788975,,,,,,,,,,,,,,,,,,,,,,,,,,,8,83,-42,1,0,0,response3disk,7,18,-8,1,0,0,rectangle,18,-8,1,0,0,1,0,"[305,293,191,174,22,302,56,68,243,264,178,209,143,133,81,80,193,103,30,163]",18,-8,1,0,0,0,64,63,63,23,1,,,,,,,,,,,,,,,,,,,,,
,,,,,,,,,,,,,,,,,,,,,,,,,,,,,,,,,,,,,,,,,,,5eac66ab9334300f4c37121b,5fb5d9463e35111d92abcbb7,2020-11-19_03h32.57.276,Colour_Similarity_Experiment,2020.1.2,Win32,60,5fb5945709dec70f2d595766,,,,,,,,,,,,,,,,,,,,PF,,,,,,,,7,1.511775,,,,,,,,,,,,,,,,,,,,,,,,,,,8,54,79,1,0,0,response1disk,5,1,-4,1,0,0,rectangle,1,-4,1,0,0,1,7,"[305,293,191,174,22,302,56,68,243,264,178,209,143,133,81,80,193,103,30,163]",1,-4,1,0,0,0,65,64,64,98,1,,,,,,,,,,,,,,,,,,,,,
,,,,,,,,,,,,,,,,,,,,,,,,,,,,,,,,,,,,,,,,,,,5eac66ab9334300f4c37121b,5fb5d9463e35111d92abcbb7,2020-11-19_03h32.57.276,Colour_Similarity_Experiment,2020.1.2,Win32,60,5fb5945709dec70f2d595766,,,,,,,,,,,,,,,,,,,,FF,,,,,,,,5,5.17895,,,,,,,,,,,,,,,,,,,,,,,,,,,9,72,-46,1,0,0,response3disk,2,-10,-2,1,0,0,rectangle,-10,-2,1,0,0,1,0,"[305,293,191,174,22,302,56,68,243,264,178,209,143,133,81,80,193,103,30,163]",-10,-2,1,0,0,0,66,65,65,11,1,,,,,,,,,,,,,,,,,,,,,
,,,,,,,,,,,,,,,,,,,,,,,,,,,,,,,,,,,,,,,,,,,5eac66ab9334300f4c37121b,5fb5d9463e35111d92abcbb7,2020-11-19_03h32.57.276,Colour_Similarity_Experiment,2020.1.2,Win32,60,5fb5945709dec70f2d595766,,,,,,,,,,,,,,,,,,,,PF,,,,,,,,7,1.52034,,,,,,,,,,,,,,,,,,,,,,,,,,,9,37,78,1,0,0,response1disk,4,-8,-10,1,0,0,rectangle,-8,-10,1,0,0,1,7,"[305,293,191,174,22,302,56,68,243,264,178,209,143,133,81,80,193,103,30,163]",-8,-10,1,0,0,0,67,66,66,114,1,,,,,,,,,,,,,,,,,,,,,
,,,,,,,,,,,,,,,,,,,,,,,,,,,,,,,,,,,,,,,,,,,5eac66ab9334300f4c37121b,5fb5d9463e35111d92abcbb7,2020-11-19_03h32.57.276,Colour_Similarity_Experiment,2020.1.2,Win32,60,5fb5945709dec70f2d595766,,,,,,,,,,,,,,,,,,,,PF,,,,,,,,6,3.049905,,,,,,,,,,,,,,,,,,,,,,,,,,,7,78,51,1,0,0,response1disk,4,10,6,1,0,0,rectangle,30,76,1,0,0,7,7,"[305,293,191,174,22,302,56,68,243,264,178,209,143,133,81,80,193,103,30,163]",1,2,1,0,0,0,68,67,67,43,1,response1disk_3,rectangle,,,,,,,,,,,,,,,,,,,
,,,,,,,,,,,,,,,,,,,,,,,,,,,,,,,,,,,,,,,,,,,5eac66ab9334300f4c37121b,5fb5d9463e35111d92abcbb7,2020-11-19_03h32.57.276,Colour_Similarity_Experiment,2020.1.2,Win32,60,5fb5945709dec70f2d595766,,,,,,,,,,,,,,,,,,,,FF,,,,,,,,7,1.554455,,,,,,,,,,,,,,,,,,,,,,,,,,,8,27,78,1,0,0,response1disk,2,8,8,1,0,0,rectangle,8,8,1,0,0,7,0,"[305,293,191,174,22,302,56,68,243,264,178,209,143,133,81,80,193,103,30,163]",8,8,1,0,0,0,69,68,68,22,1,,,,,,,,,,,,,,,,,,,,,
,,,,,,,,,,,,,,,,,,,,,,,,,,,,,,,,,,,,,,,,,,,5eac66ab9334300f4c37121b,5fb5d9463e35111d92abcbb7,2020-11-19_03h32.57.276,Colour_Similarity_Experiment,2020.1.2,Win32,60,5fb5945709dec70f2d595766,,,,,,,,,,,,,,,,,,,,FF,,,,,,,,6,5.60282,,,,,,,,,,,,,,,,,,,,,,,,,,,9,107,25,1,0,0,response1disk,7,20,-1,1,0,0,rectangle,20,-1,1,0,0,7,1,"[305,293,191,174,22,302,56,68,243,264,178,209,143,133,81,80,193,103,30,163]",20,-1,1,0,0,0,70,69,69,100,1,,,,,,,,,,,,,,,,,,,,,
,,,,,,,,,,,,,,,,,,,,,,,,,,,,,,,,,,,,,,,,,,,5eac66ab9334300f4c37121b,5fb5d9463e35111d92abcbb7,2020-11-19_03h32.57.276,Colour_Similarity_Experiment,2020.1.2,Win32,60,5fb5945709dec70f2d595766,,,,,,,,,,,,,,,,,,,,FF,,,,,,,,0,1.28038,,,,,,,,,,,,,,,,,,,,,,,,,,,2,-54,97,1,0,0,response7disk,2,-1,0,1,0,0,rectangle,-1,0,1,0,0,7,7,"[305,293,191,174,22,302,56,68,243,264,178,209,143,133,81,80,193,103,30,163]",-1,0,1,0,0,0,71,70,70,142,1,,,,,,,,,,,,,,,,,,,,,
,,,,,,,,,,,,,,,,,,,,,,,,,,,,,,,,,,,,,,,,,,,5eac66ab9334300f4c37121b,5fb5d9463e35111d92abcbb7,2020-11-19_03h32.57.276,Colour_Similarity_Experiment,2020.1.2,Win32,60,5fb5945709dec70f2d595766,,,,,,,,,,,,,,,,,,,,PF,,,,,,,,6,2.27222,,,,,,,,,,,,,,,,,,,,,,,,,,,2,80,44,1,0,0,response1disk,6,3,6,1,0,0,rectangle,3,6,1,0,0,7,3,"[305,293,191,174,22,302,56,68,243,264,178,209,143,133,81,80,193,103,30,163]",3,6,1,0,0,0,72,71,71,113,1,,,,,,,,,,,,,,,,,,,,,
,,,,,,,,,,,,,,,,,,,,,,,,,,,,,,,,,,,,,,,,,,,5eac66ab9334300f4c37121b,5fb5d9463e35111d92abcbb7,2020-11-19_03h32.57.276,Colour_Similarity_Experiment,2020.1.2,Win32,60,5fb5945709dec70f2d595766,,,,,,,,,,,,,,,,,,,,FF,,,,,,,,0,2.15387,,,,,,,,,,,,,,,,,,,,,,,,,,,6,-49,109,1,0,0,response7disk,6,3,9,1,0,0,rectangle,3,9,1,0,0,7,3,"[305,293,191,174,22,302,56,68,243,264,178,209,143,133,81,80,193,103,30,163]",3,9,1,0,0,0,73,72,72,91,1,,,,,,,,,,,,,,,,,,,,,
,,,,,,,,,,,,,,,,,,,,,,,,,,,,,,,,,,,,,,,,,,,5eac66ab9334300f4c37121b,5fb5d9463e35111d92abcbb7,2020-11-19_03h32.57.276,Colour_Similarity_Experiment,2020.1.2,Win32,60,5fb5945709dec70f2d595766,,,,,,,,,,,,,,,,,,,,FF,,,,,,,,5,2.37456,,,,,,,,,,,,,,,,,,,,,,,,,,,6,78,-49,1,0,0,response3disk,4,1,-5,1,0,0,rectangle,1,-5,1,0,0,7,1,"[305,293,191,174,22,302,56,68,243,264,178,209,143,133,81,80,193,103,30,163]",1,-5,1,0,0,0,74,73,73,56,1,,,,,,,,,,,,,,,,,,,,,
,,,,,,,,,,,,,,,,,,,,,,,,,,,,,,,,,,,,,,,,,,,5eac66ab9334300f4c37121b,5fb5d9463e35111d92abcbb7,2020-11-19_03h32.57.276,Colour_Similarity_Experiment,2020.1.2,Win32,60,5fb5945709dec70f2d595766,,,,,,,,,,,,,,,,,,,,PF,,,,,,,,3,2.41725,,,,,,,,,,,,,,,,,,,,,,,,,,,6,-58,-82,1,0,0,response5disk,5,-17,1,1,0,0,rectangle,-17,1,1,0,0,7,3,"[305,293,191,174,22,302,56,68,243,264,178,209,143,133,81,80,193,103,30,163]",-17,1,1,0,0,0,75,74,74,59,1,,,,,,,,,,,,,,,,,,,,,
,,,,,,,,,,,,,,,,,,,,,,,,,,,,,,,,,,,,,,,,,,,5eac66ab9334300f4c37121b,5fb5d9463e35111d92abcbb7,2020-11-19_03h32.57.276,Colour_Similarity_Experiment,2020.1.2,Win32,60,5fb5945709dec70f2d595766,,,,,,,,,,,,,,,,,,,,FF,,,,,,,,2,1.387675,,,,,,,,,,,,,,,,,,,,,,,,,,,4,-72,-54,1,0,0,response5disk,3,-3,-1,1,0,0,rectangle,-3,-1,1,0,0,7,1,"[305,293,191,174,22,302,56,68,243,264,178,209,143,133,81,80,193,103,30,163]",-3,-1,1,0,0,0,76,75,75,77,1,,,,,,,,,,,,,,,,,,,,,
,,,,,,,,,,,,,,,,,,,,,,,,,,,,,,,,,,,,,,,,,,,5eac66ab9334300f4c37121b,5fb5d9463e35111d92abcbb7,2020-11-19_03h32.57.276,Colour_Similarity_Experiment,2020.1.2,Win32,60,5fb5945709dec70f2d595766,,,,,,,,,,,,,,,,,,,,FF,,,,,,,,5,3.638155,,,,,,,,,,,,,,,,,,,,,,,,,,,4,94,-32,1,0,0,response3disk,7,17,6,1,0,0,rectangle,17,6,1,0,0,7,2,"[305,293,191,174,22,302,56,68,243,264,178,209,143,133,81,80,193,103,30,163]",17,6,1,0,0,0,77,76,76,87,1,,,,,,,,,,,,,,,,,,,,,
,,,,,,,,,,,,,,,,,,,,,,,,,,,,,,,,,,,,,,,,,,,5eac66ab9334300f4c37121b,5fb5d9463e35111d92abcbb7,2020-11-19_03h32.57.276,Colour_Similarity_Experiment,2020.1.2,Win32,60,5fb5945709dec70f2d595766,,,,,,,,,,,,,,,,,,,,PF,,,,,,,,7,1.775635,,,,,,,,,,,,,,,,,,,,,,,,,,,4,55,84,1,0,0,response1disk,2,17,-1,1,0,0,rectangle,17,-1,1,0,0,7,2,"[305,293,191,174,22,302,56,68,243,264,178,209,143,133,81,80,193,103,30,163]",17,-1,1,0,0,0,78,77,77,108,1,,,,,,,,,,,,,,,,,,,,,
,,,,,,,,,,,,,,,,,,,,,,,,,,,,,,,,,,,,,,,,,,,5eac66ab9334300f4c37121b,5fb5d9463e35111d92abcbb7,2020-11-19_03h32.57.276,Colour_Similarity_Experiment,2020.1.2,Win32,60,5fb5945709dec70f2d595766,,,,,,,,,,,,,,,,,,,,PF,,,,,,,,6,1.642805,,,,,,,,,,,,,,,,,,,,,,,,,,,6,77,37,1,0,0,response1disk,9,11,-3,1,0,0,rectangle,11,-3,1,0,0,7,4,"[305,293,191,174,22,302,56,68,243,264,178,209,143,133,81,80,193,103,30,163]",11,-3,1,0,0,0,79,78,78,45,1,,,,,,,,,,,,,,,,,,,,,
,,,,,,,,,,,,,,,,,,,,,,,,,,,,,,,,,,,,,,,,,,,5eac66ab9334300f4c37121b,5fb5d9463e35111d92abcbb7,2020-11-19_03h32.57.276,Colour_Similarity_Experiment,2020.1.2,Win32,60,5fb5945709dec70f2d595766,,,,,,,,,,,,,,,,,,,,FF,,,,,,,,6,1.284605,,,,,,,,,,,,,,,,,,,,,,,,,,,5,77,33,1,0,0,response1disk,9,7,0,1,0,0,rectangle,-50,-88,1,0,0,3,3,"[305,293,191,174,22,302,56,68,243,264,178,209,143,133,81,80,193,103,30,163]",5,0,1,0,0,0,80,79,79,61,1,response5disk_3,rectangle,,,,,,,,,,,,,,,,,,,
,,,,,,,,,,,,,,,,,,,,,,,,,,,,,,,,,,,,,,,,,,,5eac66ab9334300f4c37121b,5fb5d9463e35111d92abcbb7,2020-11-19_03h32.57.276,Colour_Similarity_Experiment,2020.1.2,Win32,60,5fb5945709dec70f2d595766,,,,,,,,,,,,,,,,,,,,FF,,,,,,,,3,1.8999,,,,,,,,,,,,,,,,,,,,,,,,,,,3,-58,-74,1,0,0,response5disk,2,-7,-6,1,0,0,rectangle,72,-43,1,0,0,5,5,"[305,293,191,174,22,302,56,68,243,264,178,209,143,133,81,80,193,103,30,163]",-7,-5,1,0,0,0,81,80,80,93,1,response3disk_3,rectangle,,,,,,,,,,,,,,,,,,,
,,,,,,,,,,,,,,,,,,,,,,,,,,,,,,,,,,,,,,,,,,,5eac66ab9334300f4c37121b,5fb5d9463e35111d92abcbb7,2020-11-19_03h32.57.276,Colour_Similarity_Experiment,2020.1.2,Win32,60,5fb5945709dec70f2d595766,,,,,,,,,,,,,,,,,,,,PF,,,,,,,,4,2.79686,,,,,,,,,,,,,,,,,,,,,,,,,,,7,58,-68,1,0,0,response3disk,5,4,-3,1,0,0,rectangle,4,-3,1,0,0,5,0,"[305,293,191,174,22,302,56,68,243,264,178,209,143,133,81,80,193,103,30,163]",4,-3,1,0,0,0,82,81,81,92,1,,,,,,,,,,,,,,,,,,,,,
,,,,,,,,,,,,,,,,,,,,,,,,,,,,,,,,,,,,,,,,,,,5eac66ab9334300f4c37121b,5fb5d9463e35111d92abcbb7,2020-11-19_03h32.57.276,Colour_Similarity_Experiment,2020.1.2,Win32,60,5fb5945709dec70f2d595766,,,,,,,,,,,,,,,,,,,,PF,,,,,,,,4,3.512515,,,,,,,,,,,,,,,,,,,,,,,,,,,3,48,-99,1,0,0,response3disk,6,-12,-2,1,0,0,rectangle,-12,-2,1,0,0,5,6,"[305,293,191,174,22,302,56,68,243,264,178,209,143,133,81,80,193,103,30,163]",-12,-2,1,0,0,0,83,82,82,47,1,,,,,,,,,,,,,,,,,,,,,
,,,,,,,,,,,,,,,,,,,,,,,,,,,,,,,,,,,,,,,,,,,5eac66ab9334300f4c37121b,5fb5d9463e35111d92abcbb7,2020-11-19_03h32.57.276,Colour_Similarity_Experiment,2020.1.2,Win32,60,5fb5945709dec70f2d595766,,,,,,,,,,,,,,,,,,,,PF,,,,,,,,0,1.225545,,,,,,,,,,,,,,,,,,,,,,,,,,,9,-36,80,1,0,0,response7disk,9,-15,13,1,0,0,rectangle,-15,13,1,0,0,5,5,"[305,293,191,174,22,302,56,68,243,264,178,209,143,133,81,80,193,103,30,163]",-15,13,1,0,0,0,84,83,83,106,1,,,,,,,,,,,,,,,,,,,,,
,,,,,,,,,,,,,,,,,,,,,,,,,,,,,,,,,,,,,,,,,,,5eac66ab9334300f4c37121b,5fb5d9463e35111d92abcbb7,2020-11-19_03h32.57.276,Colour_Similarity_Experiment,2020.1.2,Win32,60,5fb5945709dec70f2d595766,,,,,,,,,,,,,,,,,,,,PF,,,,,,,,6,1.57611,,,,,,,,,,,,,,,,,,,,,,,,,,,9,72,33,1,0,0,response1disk,5,12,5,1,0,0,rectangle,12,5,1,0,0,5,5,"[305,293,191,174,22,302,56,68,243,264,178,209,143,133,81,80,193,103,30,163]",12,5,1,0,0,0,85,84,84,134,1,,,,,,,,,,,,,,,,,,,,,
,,,,,,,,,,,,,,,,,,,,,,,,,,,,,,,,,,,,,,,,,,,5eac66ab9334300f4c37121b,5fb5d9463e35111d92abcbb7,2020-11-19_03h32.57.276,Colour_Similarity_Experiment,2020.1.2,Win32,60,5fb5945709dec70f2d595766,,,,,,,,,,,,,,,,,,,,PF,,,,,,,,7,1.392045,,,,,,,,,,,,,,,,,,,,,,,,,,,2,36,76,1,0,0,response1disk,8,5,4,1,0,0,rectangle,5,4,1,0,0,5,5,"[305,293,191,174,22,302,56,68,243,264,178,209,143,133,81,80,193,103,30,163]",5,4,1,0,0,0,86,85,85,52,1,,,,,,,,,,,,,,,,,,,,,
,,,,,,,,,,,,,,,,,,,,,,,,,,,,,,,,,,,,,,,,,,,5eac66ab9334300f4c37121b,5fb5d9463e35111d92abcbb7,2020-11-19_03h32.57.276,Colour_Similarity_Experiment,2020.1.2,Win32,60,5fb5945709dec70f2d595766,,,,,,,,,,,,,,,,,,,,PF,,,,,,,,7,1.794005,,,,,,,,,,,,,,,,,,,,,,,,,,,4,29,89,1,0,0,response1disk,8,2,5,1,0,0,rectangle,2,5,1,0,0,5,7,"[305,293,191,174,22,302,56,68,243,264,178,209,143,133,81,80,193,103,30,163]",2,5,1,0,0,0,87,86,86,124,1,,,,,,,,,,,,,,,,,,,,,
,,,,,,,,,,,,,,,,,,,,,,,,,,,,,,,,,,,,,,,,,,,5eac66ab9334300f4c37121b,5fb5d9463e35111d92abcbb7,2020-11-19_03h32.57.276,Colour_Similarity_Experiment,2020.1.2,Win32,60,5fb5945709dec70f2d595766,,,,,,,,,,,,,,,,,,,,FF,,,,,,,,3,1.479425,,,,,,,,,,,,,,,,,,,,,,,,,,,3,-38,-69,1,0,0,response5disk,5,12,-4,1,0,0,rectangle,12,-4,1,0,0,5,2,"[305,293,191,174,22,302,56,68,243,264,178,209,143,133,81,80,193,103,30,163]",12,-4,1,0,0,0,88,87,87,101,1,,,,,,,,,,,,,,,,,,,,,
,,,,,,,,,,,,,,,,,,,,,,,,,,,,,,,,,,,,,,,,,,,5eac66ab9334300f4c37121b,5fb5d9463e35111d92abcbb7,2020-11-19_03h32.57.276,Colour_Similarity_Experiment,2020.1.2,Win32,60,5fb5945709dec70f2d595766,,,,,,,,,,,,,,,,,,,,FF,,,,,,,,0,1.1559,,,,,,,,,,,,,,,,,,,,,,,,,,,8,-31,77,1,0,0,response7disk,8,-4,-8,1,0,0,rectangle,-4,-8,1,0,0,5,4,"[305,293,191,174,22,302,56,68,243,264,178,209,143,133,81,80,193,103,30,163]",-4,-8,1,0,0,0,89,88,88,48,1,,,,,,,,,,,,,,,,,,,,,
,,,,,,,,,,,,,,,,,,,,,,,,,,,,,,,,,,,,,,,,,,,5eac66ab9334300f4c37121b,5fb5d9463e35111d92abcbb7,2020-11-19_03h32.57.276,Colour_Similarity_Experiment,2020.1.2,Win32,60,5fb5945709dec70f2d595766,,,,,,,,,,,,,,,,,,,,PF,,,,,,,,7,1.28549,,,,,,,,,,,,,,,,,,,,,,,,,,,3,50,84,1,0,0,response1disk,1,3,3,1,0,0,rectangle,3,3,1,0,0,5,4,"[305,293,191,174,22,302,56,68,243,264,178,209,143,133,81,80,193,103,30,163]",3,3,1,0,0,0,90,89,89,96,1,,,,,,,,,,,,,,,,,,,,,
,,,,,,,,,,,,,,,,,,,,,,,,,,,,,,,,,,,,,,,,,,,5eac66ab9334300f4c37121b,5fb5d9463e35111d92abcbb7,2020-11-19_03h32.57.276,Colour_Similarity_Experiment,2020.1.2,Win32,60,5fb5945709dec70f2d595766,,,,,,,,,,,,,,,,,,,,PF,,,,,,,,6,2.73953,,,,,,,,,,,,,,,,,,,,,,,,,,,3,81,24,1,0,0,response1disk,7,24,3,1,0,0,rectangle,24,3,1,0,0,5,6,"[305,293,191,174,22,302,56,68,243,264,178,209,143,133,81,80,193,103,30,163]",24,3,1,0,0,0,91,90,90,41,1,,,,,,,,,,,,,,,,,,,,,
,,,,,,,,,,,,,,,,,,,,,,,,,,,,,,,,,,,,,,,,,,,5eac66ab9334300f4c37121b,5fb5d9463e35111d92abcbb7,2020-11-19_03h32.57.276,Colour_Similarity_Experiment,2020.1.2,Win32,60,5fb5945709dec70f2d595766,,,,,,,,,,,,,,,,,,,,PF,,,,,,,,5,1.43137,,,,,,,,,,,,,,,,,,,,,,,,,,,6,73,-28,1,0,0,response3disk,3,-5,-2,1,0,0,rectangle,-5,-2,1,0,0,5,0,"[305,293,191,174,22,302,56,68,243,264,178,209,143,133,81,80,193,103,30,163]",-5,-2,1,0,0,0,92,91,91,26,1,,,,,,,,,,,,,,,,,,,,,
,,,,,,,,,,,,,,,,,,,,,,,,,,,,,,,,,,,,,,,,,,,5eac66ab9334300f4c37121b,5fb5d9463e35111d92abcbb7,2020-11-19_03h32.57.276,Colour_Similarity_Experiment,2020.1.2,Win32,60,5fb5945709dec70f2d595766,,,,,,,,,,,,,,,,,,,,PF,,,,,,,,7,1.420905,,,,,,,,,,,,,,,,,,,,,,,,,,,7,38,86,1,0,0,response1disk,1,5,3,1,0,0,rectangle,5,3,1,0,0,5,6,"[305,293,191,174,22,302,56,68,243,264,178,209,143,133,81,80,193,103,30,163]",5,3,1,0,0,0,93,92,92,53,1,,,,,,,,,,,,,,,,,,,,,
,,,,,,,,,,,,,,,,,,,,,,,,,,,,,,,,,,,,,,,,,,,5eac66ab9334300f4c37121b,5fb5d9463e35111d92abcbb7,2020-11-19_03h32.57.276,Colour_Similarity_Experiment,2020.1.2,Win32,60,5fb5945709dec70f2d595766,,,,,,,,,,,,,,,,,,,,FF,,,,,,,,6,2.732635,,,,,,,,,,,,,,,,,,,,,,,,,,,5,91,20,1,0,0,response1disk,7,15,3,1,0,0,rectangle,15,3,1,0,0,5,0,"[305,293,191,174,22,302,56,68,243,264,178,209,143,133,81,80,193,103,30,163]",15,3,1,0,0,0,94,93,93,7,1,,,,,,,,,,,,,,,,,,,,,
,,,,,,,,,,,,,,,,,,,,,,,,,,,,,,,,,,,,,,,,,,,5eac66ab9334300f4c37121b,5fb5d9463e35111d92abcbb7,2020-11-19_03h32.57.276,Colour_Similarity_Experiment,2020.1.2,Win32,60,5fb5945709dec70f2d595766,,,,,,,,,,,,,,,,,,,,PF,,,,,,,,7,1.0396,,,,,,,,,,,,,,,,,,,,,,,,,,,6,33,71,1,0,0,response1disk,1,-8,11,1,0,0,rectangle,-8,11,1,0,0,5,4,"[305,293,191,174,22,302,56,68,243,264,178,209,143,133,81,80,193,103,30,163]",-8,11,1,0,0,0,95,94,94,46,1,,,,,,,,,,,,,,,,,,,,,
,,,,,,,,,,,,,,,,,,,,,,,,,,,,,,,,,,,,,,,,,,,5eac66ab9334300f4c37121b,5fb5d9463e35111d92abcbb7,2020-11-19_03h32.57.276,Colour_Similarity_Experiment,2020.1.2,Win32,60,5fb5945709dec70f2d595766,,,,,,,,,,,,,,,,,,,,FF,,,,,,,,4,2.90264,,,,,,,,,,,,,,,,,,,,,,,,,,,9,34,-93,1,0,0,response3disk,8,-3,5,1,0,0,rectangle,-3,5,1,0,0,5,5,"[305,293,191,174,22,302,56,68,243,264,178,209,143,133,81,80,193,103,30,163]",-3,5,1,0,0,0,96,95,95,6,1,,,,,,,,,,,,,,,,,,,,,
,,,,,,,,,,,,,,,,,,,,,,,,,,,,,,,,,,,,,,,,,,,5eac66ab9334300f4c37121b,5fb5d9463e35111d92abcbb7,2020-11-19_03h32.57.276,Colour_Similarity_Experiment,2020.1.2,Win32,60,5fb5945709dec70f2d595766,,,,,,,,,,,,,,,,,,,,FF,,,,,,,,4,1.788765,,,,,,,,,,,,,,,,,,,,,,,,,,,6,67,-82,1,0,0,response3disk,3,-9,1,1,0,0,rectangle,-9,1,1,0,0,5,5,"[305,293,191,174,22,302,56,68,243,264,178,209,143,133,81,80,193,103,30,163]",-9,1,1,0,0,0,97,96,96,21,1,,,,,,,,,,,,,,,,,,,,,
,,,,,,,,,,,,,,,,,,,,,,,,,,,,,,,,,,,,,,,,,,,5eac66ab9334300f4c37121b,5fb5d9463e35111d92abcbb7,2020-11-19_03h32.57.276,Colour_Similarity_Experiment,2020.1.2,Win32,60,5fb5945709dec70f2d595766,,,,,,,,,,,,,,,,,,,,FF,,,,,,,,7,1.531705,,,,,,,,,,,,,,,,,,,,,,,,,,,1,36,92,1,0,0,response1disk,6,3,6,1,0,0,rectangle,3,6,1,0,0,5,1,"[305,293,191,174,22,302,56,68,243,264,178,209,143,133,81,80,193,103,30,163]",3,6,1,0,0,0,98,97,97,58,1,,,,,,,,,,,,,,,,,,,,,
,,,,,,,,,,,,,,,,,,,,,,,,,,,,,,,,,,,,,,,,,,,5eac66ab9334300f4c37121b,5fb5d9463e35111d92abcbb7,2020-11-19_03h32.57.276,Colour_Similarity_Experiment,2020.1.2,Win32,60,5fb5945709dec70f2d595766,,,,,,,,,,,,,,,,,,,,PF,,,,,,,,6,2.82719,,,,,,,,,,,,,,,,,,,,,,,,,,,8,100,52,1,0,0,response1disk,6,19,-1,1,0,0,rectangle,19,-1,1,0,0,5,7,"[305,293,191,174,22,302,56,68,243,264,178,209,143,133,81,80,193,103,30,163]",19,-1,1,0,0,0,99,98,98,161,1,,,,,,,,,,,,,,,,,,,,,
,,,,,,,,,,,,,,,,,,,,,,,,,,,,,,,,,,,,,,,,,,,5eac66ab9334300f4c37121b,5fb5d9463e35111d92abcbb7,2020-11-19_03h32.57.276,Colour_Similarity_Experiment,2020.1.2,Win32,60,5fb5945709dec70f2d595766,,,,,,,,,,,,,,,,,,,,PF,,,,,,,,7,1.149135,,,,,,,,,,,,,,,,,,,,,,,,,,,5,36,74,1,0,0,response1disk,8,0,-5,1,0,0,rectangle,0,-5,1,0,0,5,7,"[305,293,191,174,22,302,56,68,243,264,178,209,143,133,81,80,193,103,30,163]",0,-5,1,0,0,0,100,99,99,149,1,,,,,,,,,,,,,,,,,,,,,
,,,,,,,,,,,,,,,,,,,,,,,,,,,,,,,,,,,,,,,,,,,5eac66ab9334300f4c37121b,5fb5d9463e35111d92abcbb7,2020-11-19_03h32.57.276,Colour_Similarity_Experiment,2020.1.2,Win32,60,5fb5945709dec70f2d595766,,,,,,,,,,,,,,,,,,,,FF,,,,,,,,4,1.788295,,,,,,,,,,,,,,,,,,,,,,,,,,,1,50,-87,1,0,0,response3disk,2,6,-6,1,0,0,rectangle,6,-6,1,0,0,5,1,"[305,293,191,174,22,302,56,68,243,264,178,209,143,133,81,80,193,103,30,163]",6,-6,1,0,0,0,101,100,100,2,1,,,,,,,,,,,,,,,,,,,,,
,,,,,,,,,,,,,,,,,,,,,,,,,,,,,,,,,,,,,,,,,,,5eac66ab9334300f4c37121b,5fb5d9463e35111d92abcbb7,2020-11-19_03h32.57.276,Colour_Similarity_Experiment,2020.1.2,Win32,60,5fb5945709dec70f2d595766,,,,,,,,,,,,,,,,,,,,PF,,,,,,,,3,2.34643,,,,,,,,,,,,,,,,,,,,,,,,,,,2,-28,-84,1,0,0,response5disk,9,-15,-2,1,0,0,rectangle,-15,-2,1,0,0,5,3,"[305,293,191,174,22,302,56,68,243,264,178,209,143,133,81,80,193,103,30,163]",-15,-2,1,0,0,0,102,101,101,39,1,,,,,,,,,,,,,,,,,,,,,
,,,,,,,,,,,,,,,,,,,,,,,,,,,,,,,,,,,,,,,,,,,5eac66ab9334300f4c37121b,5fb5d9463e35111d92abcbb7,2020-11-19_03h32.57.276,Colour_Similarity_Experiment,2020.1.2,Win32,60,5fb5945709dec70f2d595766,,,,,,,,,,,,,,,,,,,,PF,,,,,,,,7,1.30322,,,,,,,,,,,,,,,,,,,,,,,,,,,8,40,83,1,0,0,response1disk,1,-1,1,1,0,0,rectangle,-78,-44,1,0,0,5,2,"[305,293,191,174,22,302,56,68,243,264,178,209,143,133,81,80,193,103,30,163]",-4,-7,1,0,0,0,103,102,102,57,1,response5disk_3,rectangle,,,,,,,,,,,,,,,,,,,
,,,,,,,,,,,,,,,,,,,,,,,,,,,,,,,,,,,,,,,,,,,5eac66ab9334300f4c37121b,5fb5d9463e35111d92abcbb7,2020-11-19_03h32.57.276,Colour_Similarity_Experiment,2020.1.2,Win32,60,5fb5945709dec70f2d595766,,,,,,,,,,,,,,,,,,,,FF,,,,,,,,0,2.34474,,,,,,,,,,,,,,,,,,,,,,,,,,,9,-54,96,1,0,0,response7disk,9,-11,5,1,0,0,rectangle,-11,5,1,0,0,5,1,"[305,293,191,174,22,302,56,68,243,264,178,209,143,133,81,80,193,103,30,163]",-11,5,1,0,0,0,104,103,103,17,1,,,,,,,,,,,,,,,,,,,,,
,,,,,,,,,,,,,,,,,,,,,,,,,,,,,,,,,,,,,,,,,,,5eac66ab9334300f4c37121b,5fb5d9463e35111d92abcbb7,2020-11-19_03h32.57.276,Colour_Similarity_Experiment,2020.1.2,Win32,60,5fb5945709dec70f2d595766,,,,,,,,,,,,,,,,,,,,FF,,,,,,,,6,1.79582,,,,,,,,,,,,,,,,,,,,,,,,,,,2,84,42,1,0,0,response1disk,6,-2,0,1,0,0,rectangle,-2,0,1,0,0,5,3,"[305,293,191,174,22,302,56,68,243,264,178,209,143,133,81,80,193,103,30,163]",-2,0,1,0,0,0,105,104,104,40,1,,,,,,,,,,,,,,,,,,,,,
,,,,,,,,,,,,,,,,,,,,,,,,,,,,,,,,,,,,,,,,,,,5eac66ab9334300f4c37121b,5fb5d9463e35111d92abcbb7,2020-11-19_03h32.57.276,Colour_Similarity_Experiment,2020.1.2,Win32,60,5fb5945709dec70f2d595766,,,,,,,,,,,,,,,,,,,,PF,,,,,,,,6,2.530355,,,,,,,,,,,,,,,,,,,,,,,,,,,7,79,27,1,0,0,response1disk,3,11,6,1,0,0,rectangle,11,6,1,0,0,5,7,"[305,293,191,174,22,302,56,68,243,264,178,209,143,133,81,80,193,103,30,163]",11,6,1,0,0,0,106,105,105,81,1,,,,,,,,,,,,,,,,,,,,,
,,,,,,,,,,,,,,,,,,,,,,,,,,,,,,,,,,,,,,,,,,,5eac66ab9334300f4c37121b,5fb5d9463e35111d92abcbb7,2020-11-19_03h32.57.276,Colour_Similarity_Experiment,2020.1.2,Win32,60,5fb5945709dec70f2d595766,,,,,,,,,,,,,,,,,,,,PF,,,,,,,,3,1.752055,,,,,,,,,,,,,,,,,,,,,,,,,,,3,-26,-79,1,0,0,response5disk,4,-7,3,1,0,0,rectangle,-7,3,1,0,0,5,5,"[305,293,191,174,22,302,56,68,243,264,178,209,143,133,81,80,193,103,30,163]",-7,3,1,0,0,0,107,106,106,30,1,,,,,,,,,,,,,,,,,,,,,
,,,,,,,,,,,,,,,,,,,,,,,,,,,,,,,,,,,,,,,,,,,5eac66ab9334300f4c37121b,5fb5d9463e35111d92abcbb7,2020-11-19_03h32.57.276,Colour_Similarity_Experiment,2020.1.2,Win32,60,5fb5945709dec70f2d595766,,,,,,,,,,,,,,,,,,,,FF,,,,,,,,3,2.042405,,,,,,,,,,,,,,,,,,,,,,,,,,,1,-51,-80,1,0,0,response5disk,9,1,1,1,0,0,rectangle,1,1,1,0,0,5,2,"[305,293,191,174,22,302,56,68,243,264,178,209,143,133,81,80,193,103,30,163]",1,1,1,0,0,0,108,107,107,123,1,,,,,,,,,,,,,,,,,,,,,
,,,,,,,,,,,,,,,,,,,,,,,,,,,,,,,,,,,,,,,,,,,5eac66ab9334300f4c37121b,5fb5d9463e35111d92abcbb7,2020-11-19_03h32.57.276,Colour_Similarity_Experiment,2020.1.2,Win32,60,5fb5945709dec70f2d595766,,,,,,,,,,,,,,,,,,,,PF,,,,,,,,7,1.779805,,,,,,,,,,,,,,,,,,,,,,,,,,,9,48,84,1,0,0,response1disk,6,-7,6,1,0,0,rectangle,-7,6,1,0,0,5,6,"[305,293,191,174,22,302,56,68,243,264,178,209,143,133,81,80,193,103,30,163]",-7,6,1,0,0,0,109,108,108,148,1,,,,,,,,,,,,,,,,,,,,,
,,,,,,,,,,,,,,,,,,,,,,,,,,,,,,,,,,,,,,,,,,,5eac66ab9334300f4c37121b,5fb5d9463e35111d92abcbb7,2020-11-19_03h32.57.276,Colour_Similarity_Experiment,2020.1.2,Win32,60,5fb5945709dec70f2d595766,,,,,,,,,,,,,,,,,,,,PF,,,,,,,,3,2.275225,,,,,,,,,,,,,,,,,,,,,,,,,,,8,-37,-58,1,0,0,response5disk,9,-15,4,1,0,0,rectangle,-15,4,1,0,0,5,6,"[305,293,191,174,22,302,56,68,243,264,178,209,143,133,81,80,193,103,30,163]",-15,4,1,0,0,0,110,109,109,42,1,,,,,,,,,,,,,,,,,,,,,
,,,,,,,,,,,,,,,,,,,,,,,,,,,,,,,,,,,,,,,,,,,5eac66ab9334300f4c37121b,5fb5d9463e35111d92abcbb7,2020-11-19_03h32.57.276,Colour_Similarity_Experiment,2020.1.2,Win32,60,5fb5945709dec70f2d595766,,,,,,,,,,,,,,,,,,,,FF,,,,,,,,7,5.859585,,,,,,,,,,,,,,,,,,,,,,,,,,,3,37,89,1,0,0,response1disk,8,9,2,1,0,0,rectangle,9,2,1,0,0,5,4,"[305,293,191,174,22,302,56,68,243,264,178,209,143,133,81,80,193,103,30,163]",9,2,1,0,0,0,111,110,110,44,1,,,,,,,,,,,,,,,,,,,,,
,,,,,,,,,,,,,,,,,,,,,,,,,,,,,,,,,,,,,,,,,,,5eac66ab9334300f4c37121b,5fb5d9463e35111d92abcbb7,2020-11-19_03h32.57.276,Colour_Similarity_Experiment,2020.1.2,Win32,60,5fb5945709dec70f2d595766,,,,,,,,,,,,,,,,,,,,PF,,,,,,,,4,1.865315,,,,,,,,,,,,,,,,,,,,,,,,,,,1,31,-92,1,0,0,response3disk,2,-2,4,1,0,0,rectangle,-2,4,1,0,0,5,6,"[305,293,191,174,22,302,56,68,243,264,178,209,143,133,81,80,193,103,30,163]",-2,4,1,0,0,0,112,111,111,24,1,,,,,,,,,,,,,,,,,,,,,
,,,,,,,,,,,,,,,,,,,,,,,,,,,,,,,,,,,,,,,,,,,5eac66ab9334300f4c37121b,5fb5d9463e35111d92abcbb7,2020-11-19_03h32.57.276,Colour_Similarity_Experiment,2020.1.2,Win32,60,5fb5945709dec70f2d595766,,,,,,,,,,,,,,,,,,,,FF,,,,,,,,7,1.314065,,,,,,,,,,,,,,,,,,,,,,,,,,,7,42,78,1,0,0,response1disk,1,5,3,1,0,0,rectangle,5,3,1,0,0,5,7,"[305,293,191,174,22,302,56,68,243,264,178,209,143,133,81,80,193,103,30,163]",5,3,1,0,0,0,113,112,112,132,1,,,,,,,,,,,,,,,,,,,,,
,,,,,,,,,,,,,,,,,,,,,,,,,,,,,,,,,,,,,,,,,,,5eac66ab9334300f4c37121b,5fb5d9463e35111d92abcbb7,2020-11-19_03h32.57.276,Colour_Similarity_Experiment,2020.1.2,Win32,60,5fb5945709dec70f2d595766,,,,,,,,,,,,,,,,,,,,FF,,,,,,,,0,1.16817,,,,,,,,,,,,,,,,,,,,,,,,,,,3,-41,93,1,0,0,response7disk,3,-1,10,1,0,0,rectangle,-1,10,1,0,0,5,4,"[305,293,191,174,22,302,56,68,243,264,178,209,143,133,81,80,193,103,30,163]",-1,10,1,0,0,0,114,113,113,68,1,,,,,,,,,,,,,,,,,,,,,
,,,,,,,,,,,,,,,,,,,,,,,,,,,,,,,,,,,,,,,,,,,5eac66ab9334300f4c37121b,5fb5d9463e35111d92abcbb7,2020-11-19_03h32.57.276,Colour_Similarity_Experiment,2020.1.2,Win32,60,5fb5945709dec70f2d595766,,,,,,,,,,,,,,,,,,,,PF,,,,,,,,0,1.442695,,,,,,,,,,,,,,,,,,,,,,,,,,,4,-49,83,1,0,0,response7disk,4,-5,8,1,0,0,rectangle,-5,8,1,0,0,5,2,"[305,293,191,174,22,302,56,68,243,264,178,209,143,133,81,80,193,103,30,163]",-5,8,1,0,0,0,115,114,114,70,1,,,,,,,,,,,,,,,,,,,,,
,,,,,,,,,,,,,,,,,,,,,,,,,,,,,,,,,,,,,,,,,,,5eac66ab9334300f4c37121b,5fb5d9463e35111d92abcbb7,2020-11-19_03h32.57.276,Colour_Similarity_Experiment,2020.1.2,Win32,60,5fb5945709dec70f2d595766,,,,,,,,,,,,,,,,,,,,PF,,,,,,,,7,2.523705,,,,,,,,,,,,,,,,,,,,,,,,,,,1,32,89,1,0,0,response1disk,4,6,15,1,0,0,rectangle,6,15,1,0,0,5,7,"[305,293,191,174,22,302,56,68,243,264,178,209,143,133,81,80,193,103,30,163]",6,15,1,0,0,0,116,115,115,139,1,,,,,,,,,,,,,,,,,,,,,
,,,,,,,,,,,,,,,,,,,,,,,,,,,,,,,,,,,,,,,,,,,5eac66ab9334300f4c37121b,5fb5d9463e35111d92abcbb7,2020-11-19_03h32.57.276,Colour_Similarity_Experiment,2020.1.2,Win32,60,5fb5945709dec70f2d595766,,,,,,,,,,,,,,,,,,,,FF,,,,,,,,4,2.22226,,,,,,,,,,,,,,,,,,,,,,,,,,,2,38,-83,1,0,0,response3disk,5,4,11,1,0,0,rectangle,4,11,1,0,0,5,6,"[305,293,191,174,22,302,56,68,243,264,178,209,143,133,81,80,193,103,30,163]",4,11,1,0,0,0,117,116,116,80,1,,,,,,,,,,,,,,,,,,,,,
,,,,,,,,,,,,,,,,,,,,,,,,,,,,,,,,,,,,,,,,,,,5eac66ab9334300f4c37121b,5fb5d9463e35111d92abcbb7,2020-11-19_03h32.57.276,Colour_Similarity_Experiment,2020.1.2,Win32,60,5fb5945709dec70f2d595766,,,,,,,,,,,,,,,,,,,,PF,,,,,,,,0,1.537565,,,,,,,,,,,,,,,,,,,,,,,,,,,6,-44,91,1,0,0,response7disk,6,-4,2,1,0,0,rectangle,-4,2,1,0,0,5,3,"[305,293,191,174,22,302,56,68,243,264,178,209,143,133,81,80,193,103,30,163]",-4,2,1,0,0,0,118,117,117,0,1,,,,,,,,,,,,,,,,,,,,,
,,,,,,,,,,,,,,,,,,,,,,,,,,,,,,,,,,,,,,,,,,,5eac66ab9334300f4c37121b,5fb5d9463e35111d92abcbb7,2020-11-19_03h32.57.276,Colour_Similarity_Experiment,2020.1.2,Win32,60,5fb5945709dec70f2d595766,,,,,,,,,,,,,,,,,,,,FF,,,,,,,,0,1.573395,,,,,,,,,,,,,,,,,,,,,,,,,,,7,-41,99,1,0,0,response7disk,7,12,5,1,0,0,rectangle,12,5,1,0,0,5,6,"[305,293,191,174,22,302,56,68,243,264,178,209,143,133,81,80,193,103,30,163]",12,5,1,0,0,0,119,118,118,34,1,,,,,,,,,,,,,,,,,,,,,
,,,,,,,,,,,,,,,,,,,,,,,,,,,,,,,,,,,,,,,,,,,5eac66ab9334300f4c37121b,5fb5d9463e35111d92abcbb7,2020-11-19_03h32.57.276,Colour_Similarity_Experiment,2020.1.2,Win32,60,5fb5945709dec70f2d595766,,,,,,,,,,,,,,,,,,,,FF,,,,,,,,2,1.845185,,,,,,,,,,,,,,,,,,,,,,,,,,,7,-84,-22,1,0,0,response5disk,6,-4,9,1,0,0,rectangle,-4,9,1,0,0,5,5,"[305,293,191,174,22,302,56,68,243,264,178,209,143,133,81,80,193,103,30,163]",-4,9,1,0,0,0,120,119,119,31,1,,,,,,,,,,,,,,,,,,,,,
,,,,,,,,,,,,,,,,,,,,,,,,,,,,,,,,,,,,,,,,,,,5eac66ab9334300f4c37121b,5fb5d9463e35111d92abcbb7,2020-11-19_03h32.57.276,Colour_Similarity_Experiment,2020.1.2,Win32,60,5fb5945709dec70f2d595766,,,,,,,,,,,,,,,,,,,,FF,,,,,,,,4,1.483285,,,,,,,,,,,,,,,,,,,,,,,,,,,3,66,-98,1,0,0,response3disk,6,6,-4,1,0,0,rectangle,6,-4,1,0,0,5,5,"[305,293,191,174,22,302,56,68,243,264,178,209,143,133,81,80,193,103,30,163]",6,-4,1,0,0,0,121,120,120,95,1,,,,,,,,,,,,,,,,,,,,,
,,,,,,,,,,,,,,,,,,,,,,,,,,,,,,,,,,,,,,,,,,,5eac66ab9334300f4c37121b,5fb5d9463e35111d92abcbb7,2020-11-19_03h32.57.276,Colour_Similarity_Experiment,2020.1.2,Win32,60,5fb5945709dec70f2d595766,,,,,,,,,,,,,,,,,,,,FF,,,,,,,,2,1.72388,,,,,,,,,,,,,,,,,,,,,,,,,,,3,-86,-36,1,0,0,response5disk,4,-13,-2,1,0,0,rectangle,-13,-2,1,0,0,5,6,"[305,293,191,174,22,302,56,68,243,264,178,209,143,133,81,80,193,103,30,163]",-13,-2,1,0,0,0,122,121,121,110,1,,,,,,,,,,,,,,,,,,,,,
,,,,,,,,,,,,,,,,,,,,,,,,,,,,,,,,,,,,,,,,,,,5eac66ab9334300f4c37121b,5fb5d9463e35111d92abcbb7,2020-11-19_03h32.57.276,Colour_Similarity_Experiment,2020.1.2,Win32,60,5fb5945709dec70f2d595766,,,,,,,,,,,,,,,,,,,,PF,,,,,,,,2,2.198195,,,,,,,,,,,,,,,,,,,,,,,,,,,6,-62,-31,1,0,0,response5disk,7,7,-4,1,0,0,rectangle,7,-4,1,0,0,5,1,"[305,293,191,174,22,302,56,68,243,264,178,209,143,133,81,80,193,103,30,163]",7,-4,1,0,0,0,123,122,122,50,1,,,,,,,,,,,,,,,,,,,,,
,,,,,,,,,,,,,,,,,,,,,,,,,,,,,,,,,,,,,,,,,,,5eac66ab9334300f4c37121b,5fb5d9463e35111d92abcbb7,2020-11-19_03h32.57.276,Colour_Similarity_Experiment,2020.1.2,Win32,60,5fb5945709dec70f2d595766,,,,,,,,,,,,,,,,,,,,PF,,,,,,,,7,1.231295,,,,,,,,,,,,,,,,,,,,,,,,,,,1,53,87,1,0,0,response1disk,7,0,4,1,0,0,rectangle,0,4,1,0,0,5,0,"[305,293,191,174,22,302,56,68,243,264,178,209,143,133,81,80,193,103,30,163]",0,4,1,0,0,0,124,123,123,150,1,,,,,,,,,,,,,,,,,,,,,
,,,,,,,,,,,,,,,,,,,,,,,,,,,,,,,,,,,,,,,,,,,5eac66ab9334300f4c37121b,5fb5d9463e35111d92abcbb7,2020-11-19_03h32.57.276,Colour_Similarity_Experiment,2020.1.2,Win32,60,5fb5945709dec70f2d595766,,,,,,,,,,,,,,,,,,,,FF,,,,,,,,3,2.56645,,,,,,,,,,,,,,,,,,,,,,,,,,,6,-46,-110,1,0,0,response5disk,5,-14,-1,1,0,0,rectangle,-14,-1,1,0,0,5,4,"[305,293,191,174,22,302,56,68,243,264,178,209,143,133,81,80,193,103,30,163]",-14,-1,1,0,0,0,125,124,124,126,1,,,,,,,,,,,,,,,,,,,,,
,,,,,,,,,,,,,,,,,,,,,,,,,,,,,,,,,,,,,,,,,,,5eac66ab9334300f4c37121b,5fb5d9463e35111d92abcbb7,2020-11-19_03h32.57.276,Colour_Similarity_Experiment,2020.1.2,Win32,60,5fb5945709dec70f2d595766,,,,,,,,,,,,,,,,,,,,FF,,,,,,,,7,1.572775,,,,,,,,,,,,,,,,,,,,,,,,,,,9,47,76,1,0,0,response1disk,4,4,1,1,0,0,rectangle,4,1,1,0,0,5,1,"[305,293,191,174,22,302,56,68,243,264,178,209,143,133,81,80,193,103,30,163]",4,1,1,0,0,0,126,125,125,60,1,,,,,,,,,,,,,,,,,,,,,
,,,,,,,,,,,,,,,,,,,,,,,,,,,,,,,,,,,,,,,,,,,5eac66ab9334300f4c37121b,5fb5d9463e35111d92abcbb7,2020-11-19_03h32.57.276,Colour_Similarity_Experiment,2020.1.2,Win32,60,5fb5945709dec70f2d595766,,,,,,,,,,,,,,,,,,,,FF,,,,,,,,7,1.841,,,,,,,,,,,,,,,,,,,,,,,,,,,1,74,102,1,0,0,response1disk,3,15,8,1,0,0,rectangle,15,8,1,0,0,5,7,"[305,293,191,174,22,302,56,68,243,264,178,209,143,133,81,80,193,103,30,163]",15,8,1,0,0,0,127,126,126,99,1,,,,,,,,,,,,,,,,,,,,,
,,,,,,,,,,,,,,,,,,,,,,,,,,,,,,,,,,,,,,,,,,,5eac66ab9334300f4c37121b,5fb5d9463e35111d92abcbb7,2020-11-19_03h32.57.276,Colour_Similarity_Experiment,2020.1.2,Win32,60,5fb5945709dec70f2d595766,,,,,,,,,,,,,,,,,,,,FF,,,,,,,,7,1.32691,,,,,,,,,,,,,,,,,,,,,,,,,,,5,25,76,1,0,0,response1disk,8,6,5,1,0,0,rectangle,6,5,1,0,0,5,1,"[305,293,191,174,22,302,56,68,243,264,178,209,143,133,81,80,193,103,30,163]",6,5,1,0,0,0,128,127,127,16,1,,,,,,,,,,,,,,,,,,,,,
,,,,,,,,,,,,,,,,,,,,,,,,,,,,,,,,,,,,,,,,,,,5eac66ab9334300f4c37121b,5fb5d9463e35111d92abcbb7,2020-11-19_03h32.57.276,Colour_Similarity_Experiment,2020.1.2,Win32,60,5fb5945709dec70f2d595766,,,,,,,,,,,,,,,,,,,,PF,,,,,,,,4,3.01233,,,,,,,,,,,,,,,,,,,,,,,,,,,7,32,-89,1,0,0,response3disk,6,-15,-5,1,0,0,rectangle,-15,-5,1,0,0,5,5,"[305,293,191,174,22,302,56,68,243,264,178,209,143,133,81,80,193,103,30,163]",-15,-5,1,0,0,0,129,128,128,29,1,,,,,,,,,,,,,,,,,,,,,
,,,,,,,,,,,,,,,,,,,,,,,,,,,,,,,,,,,,,,,,,,,5eac66ab9334300f4c37121b,5fb5d9463e35111d92abcbb7,2020-11-19_03h32.57.276,Colour_Similarity_Experiment,2020.1.2,Win32,60,5fb5945709dec70f2d595766,,,,,,,,,,,,,,,,,,,,FF,,,,,,,,6,2.5322,,,,,,,,,,,,,,,,,,,,,,,,,,,4,79,18,1,0,0,response1disk,6,-4,-9,1,0,0,rectangle,-4,-9,1,0,0,5,0,"[305,293,191,174,22,302,56,68,243,264,178,209,143,133,81,80,193,103,30,163]",-4,-9,1,0,0,0,130,129,129,122,1,,,,,,,,,,,,,,,,,,,,,
,,,,,,,,,,,,,,,,,,,,,,,,,,,,,,,,,,,,,,,,,,,5eac66ab9334300f4c37121b,5fb5d9463e35111d92abcbb7,2020-11-19_03h32.57.276,Colour_Similarity_Experiment,2020.1.2,Win32,60,5fb5945709dec70f2d595766,,,,,,,,,,,,,,,,,,,,FF,,,,,,,,0,1.22963,,,,,,,,,,,,,,,,,,,,,,,,,,,4,-39,79,1,0,0,response7disk,4,2,6,1,0,0,rectangle,2,6,1,0,0,5,2,"[305,293,191,174,22,302,56,68,243,264,178,209,143,133,81,80,193,103,30,163]",2,6,1,0,0,0,131,130,130,84,1,,,,,,,,,,,,,,,,,,,,,
,,,,,,,,,,,,,,,,,,,,,,,,,,,,,,,,,,,,,,,,,,,5eac66ab9334300f4c37121b,5fb5d9463e35111d92abcbb7,2020-11-19_03h32.57.276,Colour_Similarity_Experiment,2020.1.2,Win32,60,5fb5945709dec70f2d595766,,,,,,,,,,,,,,,,,,,,FF,,,,,,,,7,1.556175,,,,,,,,,,,,,,,,,,,,,,,,,,,1,27,82,1,0,0,response1disk,7,10,10,1,0,0,rectangle,10,10,1,0,0,5,6,"[305,293,191,174,22,302,56,68,243,264,178,209,143,133,81,80,193,103,30,163]",10,10,1,0,0,0,132,131,131,137,1,,,,,,,,,,,,,,,,,,,,,
,,,,,,,,,,,,,,,,,,,,,,,,,,,,,,,,,,,,,,,,,,,5eac66ab9334300f4c37121b,5fb5d9463e35111d92abcbb7,2020-11-19_03h32.57.276,Colour_Similarity_Experiment,2020.1.2,Win32,60,5fb5945709dec70f2d595766,,,,,,,,,,,,,,,,,,,,FF,,,,,,,,7,1.871585,,,,,,,,,,,,,,,,,,,,,,,,,,,1,50,90,1,0,0,response1disk,5,13,2,1,0,0,rectangle,-111,48,1,0,0,1,1,"[305,293,191,174,22,302,56,68,243,264,178,209,143,133,81,80,193,103,30,163]",-17,6,1,0,0,0,133,132,132,82,1,response7disk_3,rectangle,,,,,,,,,,,,,,,,,,,
,,,,,,,,,,,,,,,,,,,,,,,,,,,,,,,,,,,,,,,,,,,5eac66ab9334300f4c37121b,5fb5d9463e35111d92abcbb7,2020-11-19_03h32.57.276,Colour_Similarity_Experiment,2020.1.2,Win32,60,5fb5945709dec70f2d595766,,,,,,,,,,,,,,,,,,,,PF,,,,,,,,4,2.68503,,,,,,,,,,,,,,,,,,,,,,,,,,,2,50,-113,1,0,0,response3disk,4,-3,-1,1,0,0,rectangle,-3,-1,1,0,0,1,0,"[305,293,191,174,22,302,56,68,243,264,178,209,143,133,81,80,193,103,30,163]",-3,-1,1,0,0,0,134,133,133,127,1,,,,,,,,,,,,,,,,,,,,,
,,,,,,,,,,,,,,,,,,,,,,,,,,,,,,,,,,,,,,,,,,,5eac66ab9334300f4c37121b,5fb5d9463e35111d92abcbb7,2020-11-19_03h32.57.276,Colour_Similarity_Experiment,2020.1.2,Win32,60,5fb5945709dec70f2d595766,,,,,,,,,,,,,,,,,,,,FF,,,,,,,,5,2.290865,,,,,,,,,,,,,,,,,,,,,,,,,,,6,85,-46,1,0,0,response3disk,8,-6,1,1,0,0,rectangle,-6,1,1,0,0,1,6,"[305,293,191,174,22,302,56,68,243,264,178,209,143,133,81,80,193,103,30,163]",-6,1,1,0,0,0,135,134,134,133,1,,,,,,,,,,,,,,,,,,,,,
,,,,,,,,,,,,,,,,,,,,,,,,,,,,,,,,,,,,,,,,,,,5eac66ab9334300f4c37121b,5fb5d9463e35111d92abcbb7,2020-11-19_03h32.57.276,Colour_Similarity_Experiment,2020.1.2,Win32,60,5fb5945709dec70f2d595766,,,,,,,,,,,,,,,,,,,,PF,,,,,,,,4,1.379665,,,,,,,,,,,,,,,,,,,,,,,,,,,3,45,-87,1,0,0,response3disk,5,4,9,1,0,0,rectangle,4,9,1,0,0,1,5,"[305,293,191,174,22,302,56,68,243,264,178,209,143,133,81,80,193,103,30,163]",4,9,1,0,0,0,136,135,135,66,1,,,,,,,,,,,,,,,,,,,,,
,,,,,,,,,,,,,,,,,,,,,,,,,,,,,,,,,,,,,,,,,,,5eac66ab9334300f4c37121b,5fb5d9463e35111d92abcbb7,2020-11-19_03h32.57.276,Colour_Similarity_Experiment,2020.1.2,Win32,60,5fb5945709dec70f2d595766,,,,,,,,,,,,,,,,,,,,FF,,,,,,,,7,2.049135,,,,,,,,,,,,,,,,,,,,,,,,,,,5,44,97,1,0,0,response1disk,1,7,4,1,0,0,rectangle,7,4,1,0,0,1,6,"[305,293,191,174,22,302,56,68,243,264,178,209,143,133,81,80,193,103,30,163]",7,4,1,0,0,0,137,136,136,131,1,,,,,,,,,,,,,,,,,,,,,
,,,,,,,,,,,,,,,,,,,,,,,,,,,,,,,,,,,,,,,,,,,5eac66ab9334300f4c37121b,5fb5d9463e35111d92abcbb7,2020-11-19_03h32.57.276,Colour_Similarity_Experiment,2020.1.2,Win32,60,5fb5945709dec70f2d595766,,,,,,,,,,,,,,,,,,,,FF,,,,,,,,6,2.198305,,,,,,,,,,,,,,,,,,,,,,,,,,,7,64,30,1,0,0,response1disk,4,5,2,1,0,0,rectangle,5,2,1,0,0,1,6,"[305,293,191,174,22,302,56,68,243,264,178,209,143,133,81,80,193,103,30,163]",5,2,1,0,0,0,138,137,137,158,1,,,,,,,,,,,,,,,,,,,,,
,,,,,,,,,,,,,,,,,,,,,,,,,,,,,,,,,,,,,,,,,,,5eac66ab9334300f4c37121b,5fb5d9463e35111d92abcbb7,2020-11-19_03h32.57.276,Colour_Similarity_Experiment,2020.1.2,Win32,60,5fb5945709dec70f2d595766,,,,,,,,,,,,,,,,,,,,PF,,,,,,,,3,2.713325,,,,,,,,,,,,,,,,,,,,,,,,,,,1,-30,-97,1,0,0,response5disk,9,2,4,1,0,0,rectangle,2,4,1,0,0,1,6,"[305,293,191,174,22,302,56,68,243,264,178,209,143,133,81,80,193,103,30,163]",2,4,1,0,0,0,139,138,138,15,1,,,,,,,,,,,,,,,,,,,,,
,,,,,,,,,,,,,,,,,,,,,,,,,,,,,,,,,,,,,,,,,,,5eac66ab9334300f4c37121b,5fb5d9463e35111d92abcbb7,2020-11-19_03h32.57.276,Colour_Similarity_Experiment,2020.1.2,Win32,60,5fb5945709dec70f2d595766,,,,,,,,,,,,,,,,,,,,FF,,,,,,,,7,1.155115,,,,,,,,,,,,,,,,,,,,,,,,,,,9,45,58,1,0,0,response1disk,5,14,-1,1,0,0,rectangle,14,-1,1,0,0,1,7,"[305,293,191,174,22,302,56,68,243,264,178,209,143,133,81,80,193,103,30,163]",14,-1,1,0,0,0,140,139,139,128,1,,,,,,,,,,,,,,,,,,,,,
,,,,,,,,,,,,,,,,,,,,,,,,,,,,,,,,,,,,,,,,,,,5eac66ab9334300f4c37121b,5fb5d9463e35111d92abcbb7,2020-11-19_03h32.57.276,Colour_Similarity_Experiment,2020.1.2,Win32,60,5fb5945709dec70f2d595766,,,,,,,,,,,,,,,,,,,,FF,,,,,,,,4,3.150395,,,,,,,,,,,,,,,,,,,,,,,,,,,6,31,-86,1,0,0,response3disk,7,-4,5,1,0,0,rectangle,-4,5,1,0,0,1,1,"[305,293,191,174,22,302,56,68,243,264,178,209,143,133,81,80,193,103,30,163]",-4,5,1,0,0,0,141,140,140,18,1,,,,,,,,,,,,,,,,,,,,,
,,,,,,,,,,,,,,,,,,,,,,,,,,,,,,,,,,,,,,,,,,,5eac66ab9334300f4c37121b,5fb5d9463e35111d92abcbb7,2020-11-19_03h32.57.276,Colour_Similarity_Experiment,2020.1.2,Win32,60,5fb5945709dec70f2d595766,,,,,,,,,,,,,,,,,,,,PF,,,,,,,,4,2.011895,,,,,,,,,,,,,,,,,,,,,,,,,,,3,26,-90,1,0,0,response3disk,2,-7,0,1,0,0,rectangle,-7,0,1,0,0,1,0,"[305,293,191,174,22,302,56,68,243,264,178,209,143,133,81,80,193,103,30,163]",-7,0,1,0,0,0,142,141,141,36,1,,,,,,,,,,,,,,,,,,,,,
,,,,,,,,,,,,,,,,,,,,,,,,,,,,,,,,,,,,,,,,,,,5eac66ab9334300f4c37121b,5fb5d9463e35111d92abcbb7,2020-11-19_03h32.57.276,Colour_Similarity_Experiment,2020.1.2,Win32,60,5fb5945709dec70f2d595766,,,,,,,,,,,,,,,,,,,,PF,,,,,,,,6,1.88209,,,,,,,,,,,,,,,,,,,,,,,,,,,4,68,29,1,0,0,response1disk,7,12,5,1,0,0,rectangle,47,-84,1,0,0,4,4,"[305,293,191,174,22,302,56,68,243,264,178,209,143,133,81,80,193,103,30,163]",0,-9,1,0,0,0,143,142,142,38,1,response3disk_3,rectangle,,,,,,,,,,,,,,,,,,,
,,,,,,,,,,,,,,,,,,,,,,,,,,,,,,,,,,,,,,,,,,,5eac66ab9334300f4c37121b,5fb5d9463e35111d92abcbb7,2020-11-19_03h32.57.276,Colour_Similarity_Experiment,2020.1.2,Win32,60,5fb5945709dec70f2d595766,,,,,,,,,,,,,,,,,,,,PF,,,,,,,,7,1.63493,,,,,,,,,,,,,,,,,,,,,,,,,,,3,40,82,1,0,0,response1disk,8,-3,4,1,0,0,rectangle,-3,4,1,0,0,4,0,"[305,293,191,174,22,302,56,68,243,264,178,209,143,133,81,80,193,103,30,163]",-3,4,1,0,0,0,144,143,143,3,1,,,,,,,,,,,,,,,,,,,,,
,,,,,,,,,,,,,,,,,,,,,,,,,,,,,,,,,,,,,,,,,,,5eac66ab9334300f4c37121b,5fb5d9463e35111d92abcbb7,2020-11-19_03h32.57.276,Colour_Similarity_Experiment,2020.1.2,Win32,60,5fb5945709dec70f2d595766,,,,,,,,,,,,,,,,,,,,FF,,,,,,,,7,1.82809,,,,,,,,,,,,,,,,,,,,,,,,,,,6,38,83,1,0,0,response1disk,1,5,0,1,0,0,rectangle,5,0,1,0,0,4,4,"[305,293,191,174,22,302,56,68,243,264,178,209,143,133,81,80,193,103,30,163]",5,0,1,0,0,0,145,144,144,5,1,,,,,,,,,,,,,,,,,,,,,
,,,,,,,,,,,,,,,,,,,,,,,,,,,,,,,,,,,,,,,,,,,5eac66ab9334300f4c37121b,5fb5d9463e35111d92abcbb7,2020-11-19_03h32.57.276,Colour_Similarity_Experiment,2020.1.2,Win32,60,5fb5945709dec70f2d595766,,,,,,,,,,,,,,,,,,,,PF,,,,,,,,3,1.78161,,,,,,,,,,,,,,,,,,,,,,,,,,,4,-53,-78,1,0,0,response5disk,3,-5,-15,1,0,0,rectangle,-5,-15,1,0,0,4,1,"[305,293,191,174,22,302,56,68,243,264,178,209,143,133,81,80,193,103,30,163]",-5,-15,1,0,0,0,146,145,145,89,1,,,,,,,,,,,,,,,,,,,,,
,,,,,,,,,,,,,,,,,,,,,,,,,,,,,,,,,,,,,,,,,,,5eac66ab9334300f4c37121b,5fb5d9463e35111d92abcbb7,2020-11-19_03h32.57.276,Colour_Similarity_Experiment,2020.1.2,Win32,60,5fb5945709dec70f2d595766,,,,,,,,,,,,,,,,,,,,PF,,,,,,,,5,2.76332,,,,,,,,,,,,,,,,,,,,,,,,,,,7,66,-41,1,0,0,response3disk,8,3,-2,1,0,0,rectangle,3,-2,1,0,0,4,6,"[305,293,191,174,22,302,56,68,243,264,178,209,143,133,81,80,193,103,30,163]",3,-2,1,0,0,0,147,146,146,140,1,,,,,,,,,,,,,,,,,,,,,
,,,,,,,,,,,,,,,,,,,,,,,,,,,,,,,,,,,,,,,,,,,5eac66ab9334300f4c37121b,5fb5d9463e35111d92abcbb7,2020-11-19_03h32.57.276,Colour_Similarity_Experiment,2020.1.2,Win32,60,5fb5945709dec70f2d595766,,,,,,,,,,,,,,,,,,,,PF,,,,,,,,5,1.943605,,,,,,,,,,,,,,,,,,,,,,,,,,,2,61,-31,1,0,0,response3disk,5,-3,7,1,0,0,rectangle,-3,7,1,0,0,4,0,"[305,293,191,174,22,302,56,68,243,264,178,209,143,133,81,80,193,103,30,163]",-3,7,1,0,0,0,148,147,147,147,1,,,,,,,,,,,,,,,,,,,,,
,,,,,,,,,,,,,,,,,,,,,,,,,,,,,,,,,,,,,,,,,,,5eac66ab9334300f4c37121b,5fb5d9463e35111d92abcbb7,2020-11-19_03h32.57.276,Colour_Similarity_Experiment,2020.1.2,Win32,60,5fb5945709dec70f2d595766,,,,,,,,,,,,,,,,,,,,FF,,,,,,,,7,1.523895,,,,,,,,,,,,,,,,,,,,,,,,,,,4,39,82,1,0,0,response1disk,9,-21,-9,1,0,0,rectangle,-21,-9,1,0,0,4,0,"[305,293,191,174,22,302,56,68,243,264,178,209,143,133,81,80,193,103,30,163]",-21,-9,1,0,0,0,149,148,148,90,1,,,,,,,,,,,,,,,,,,,,,
,,,,,,,,,,,,,,,,,,,,,,,,,,,,,,,,,,,,,,,,,,,5eac66ab9334300f4c37121b,5fb5d9463e35111d92abcbb7,2020-11-19_03h32.57.276,Colour_Similarity_Experiment,2020.1.2,Win32,60,5fb5945709dec70f2d595766,,,,,,,,,,,,,,,,,,,,PF,,,,,,,,5,2.25728,,,,,,,,,,,,,,,,,,,,,,,,,,,5,62,-53,1,0,0,response3disk,2,8,-7,1,0,0,rectangle,8,-7,1,0,0,4,6,"[305,293,191,174,22,302,56,68,243,264,178,209,143,133,81,80,193,103,30,163]",8,-7,1,0,0,0,150,149,149,129,1,,,,,,,,,,,,,,,,,,,,,
,,,,,,,,,,,,,,,,,,,,,,,,,,,,,,,,,,,,,,,,,,,5eac66ab9334300f4c37121b,5fb5d9463e35111d92abcbb7,2020-11-19_03h32.57.276,Colour_Similarity_Experiment,2020.1.2,Win32,60,5fb5945709dec70f2d595766,,,,,,,,,,,,,,,,,,,,FF,,,,,,,,7,1.50981,,,,,,,,,,,,,,,,,,,,,,,,,,,7,54,78,1,0,0,response1disk,9,8,-5,1,0,0,rectangle,8,-5,1,0,0,4,3,"[305,293,191,174,22,302,56,68,243,264,178,209,143,133,81,80,193,103,30,163]",8,-5,1,0,0,0,151,150,150,155,1,,,,,,,,,,,,,,,,,,,,,
,,,,,,,,,,,,,,,,,,,,,,,,,,,,,,,,,,,,,,,,,,,5eac66ab9334300f4c37121b,5fb5d9463e35111d92abcbb7,2020-11-19_03h32.57.276,Colour_Similarity_Experiment,2020.1.2,Win32,60,5fb5945709dec70f2d595766,,,,,,,,,,,,,,,,,,,,FF,,,,,,,,7,1.824105,,,,,,,,,,,,,,,,,,,,,,,,,,,6,37,73,1,0,0,response1disk,9,-1,-4,1,0,0,rectangle,-1,-4,1,0,0,4,2,"[305,293,191,174,22,302,56,68,243,264,178,209,143,133,81,80,193,103,30,163]",-1,-4,1,0,0,0,152,151,151,160,1,,,,,,,,,,,,,,,,,,,,,
,,,,,,,,,,,,,,,,,,,,,,,,,,,,,,,,,,,,,,,,,,,5eac66ab9334300f4c37121b,5fb5d9463e35111d92abcbb7,2020-11-19_03h32.57.276,Colour_Similarity_Experiment,2020.1.2,Win32,60,5fb5945709dec70f2d595766,,,,,,,,,,,,,,,,,,,,PF,,,,,,,,6,2.76675,,,,,,,,,,,,,,,,,,,,,,,,,,,4,107,29,1,0,0,response1disk,6,26,2,1,0,0,rectangle,26,2,1,0,0,4,4,"[305,293,191,174,22,302,56,68,243,264,178,209,143,133,81,80,193,103,30,163]",26,2,1,0,0,0,153,152,152,120,1,,,,,,,,,,,,,,,,,,,,,
,,,,,,,,,,,,,,,,,,,,,,,,,,,,,,,,,,,,,,,,,,,5eac66ab9334300f4c37121b,5fb5d9463e35111d92abcbb7,2020-11-19_03h32.57.276,Colour_Similarity_Experiment,2020.1.2,Win32,60,5fb5945709dec70f2d595766,,,,,,,,,,,,,,,,,,,,FF,,,,,,,,5,4.04513,,,,,,,,,,,,,,,,,,,,,,,,,,,8,71,-48,1,0,0,response3disk,9,-4,1,1,0,0,rectangle,-4,1,1,0,0,4,4,"[305,293,191,174,22,302,56,68,243,264,178,209,143,133,81,80,193,103,30,163]",-4,1,1,0,0,0,154,153,153,105,1,,,,,,,,,,,,,,,,,,,,,
,,,,,,,,,,,,,,,,,,,,,,,,,,,,,,,,,,,,,,,,,,,5eac66ab9334300f4c37121b,5fb5d9463e35111d92abcbb7,2020-11-19_03h32.57.276,Colour_Similarity_Experiment,2020.1.2,Win32,60,5fb5945709dec70f2d595766,,,,,,,,,,,,,,,,,,,,PF,,,,,,,,0,1.23105,,,,,,,,,,,,,,,,,,,,,,,,,,,1,-50,98,1,0,0,response7disk,1,11,4,1,0,0,rectangle,11,4,1,0,0,4,7,"[305,293,191,174,22,302,56,68,243,264,178,209,143,133,81,80,193,103,30,163]",11,4,1,0,0,0,155,154,154,76,1,,,,,,,,,,,,,,,,,,,,,
,,,,,,,,,,,,,,,,,,,,,,,,,,,,,,,,,,,,,,,,,,,5eac66ab9334300f4c37121b,5fb5d9463e35111d92abcbb7,2020-11-19_03h32.57.276,Colour_Similarity_Experiment,2020.1.2,Win32,60,5fb5945709dec70f2d595766,,,,,,,,,,,,,,,,,,,,FF,,,,,,,,5,2.79671,,,,,,,,,,,,,,,,,,,,,,,,,,,2,65,-42,1,0,0,response3disk,4,-8,5,1,0,0,rectangle,-8,5,1,0,0,4,1,"[305,293,191,174,22,302,56,68,243,264,178,209,143,133,81,80,193,103,30,163]",-8,5,1,0,0,0,156,155,155,145,1,,,,,,,,,,,,,,,,,,,,,
,,,,,,,,,,,,,,,,,,,,,,,,,,,,,,,,,,,,,,,,,,,5eac66ab9334300f4c37121b,5fb5d9463e35111d92abcbb7,2020-11-19_03h32.57.276,Colour_Similarity_Experiment,2020.1.2,Win32,60,5fb5945709dec70f2d595766,,,,,,,,,,,,,,,,,,,,PF,,,,,,,,4,2.471595,,,,,,,,,,,,,,,,,,,,,,,,,,,9,31,-102,1,0,0,response3disk,8,-12,-4,1,0,0,rectangle,-12,-4,1,0,0,4,6,"[305,293,191,174,22,302,56,68,243,264,178,209,143,133,81,80,193,103,30,163]",-12,-4,1,0,0,0,157,156,156,67,1,,,,,,,,,,,,,,,,,,,,,
,,,,,,,,,,,,,,,,,,,,,,,,,,,,,,,,,,,,,,,,,,,5eac66ab9334300f4c37121b,5fb5d9463e35111d92abcbb7,2020-11-19_03h32.57.276,Colour_Similarity_Experiment,2020.1.2,Win32,60,5fb5945709dec70f2d595766,,,,,,,,,,,,,,,,,,,,PF,,,,,,,,6,1.888575,,,,,,,,,,,,,,,,,,,,,,,,,,,7,78,47,1,0,0,response1disk,2,12,0,1,0,0,rectangle,12,0,1,0,0,4,6,"[305,293,191,174,22,302,56,68,243,264,178,209,143,133,81,80,193,103,30,163]",12,0,1,0,0,0,158,157,157,32,1,,,,,,,,,,,,,,,,,,,,,
,,,,,,,,,,,,,,,,,,,,,,,,,,,,,,,,,,,,,,,,,,,5eac66ab9334300f4c37121b,5fb5d9463e35111d92abcbb7,2020-11-19_03h32.57.276,Colour_Similarity_Experiment,2020.1.2,Win32,60,5fb5945709dec70f2d595766,,,,,,,,,,,,,,,,,,,,PF,,,,,,,,7,1.52315,,,,,,,,,,,,,,,,,,,,,,,,,,,5,55,87,1,0,0,response1disk,1,-12,2,1,0,0,rectangle,-12,2,1,0,0,4,5,"[305,293,191,174,22,302,56,68,243,264,178,209,143,133,81,80,193,103,30,163]",-12,2,1,0,0,0,159,158,158,159,1,,,,,,,,,,,,,,,,,,,,,
,,,,,,,,,,,,,,,,,,,,,,,,,,,,,,,,,,,,,,,,,,,5eac66ab9334300f4c37121b,5fb5d9463e35111d92abcbb7,2020-11-19_03h32.57.276,Colour_Similarity_Experiment,2020.1.2,Win32,60,5fb5945709dec70f2d595766,,,,,,,,,,,,,,,,,,,,PF,,,,,,,,4,2.699815,,,,,,,,,,,,,,,,,,,,,,,,,,,9,54,-93,1,0,0,response3disk,1,2,0,1,0,0,rectangle,2,0,1,0,0,4,4,"[305,293,191,174,22,302,56,68,243,264,178,209,143,133,81,80,193,103,30,163]",2,0,1,0,0,0,160,159,159,74,1,,,,,,,,,,,,,,,,,,,,,
,,,,,,,,,,,,,,,,,,,,,,,,,,,,,,,,,,,,,,,,,,,5eac66ab9334300f4c37121b,5fb5d9463e35111d92abcbb7,2020-11-19_03h32.57.276,Colour_Similarity_Experiment,2020.1.2,Win32,60,5fb5945709dec70f2d595766,,,,,,,,,,,,,,,,,,,,FF,,,,,,,,6,1.864575,,,,,,,,,,,,,,,,,,,,,,,,,,,6,77,40,1,0,0,response1disk,2,-2,0,1,0,0,rectangle,-2,0,1,0,0,4,4,"[305,293,191,174,22,302,56,68,243,264,178,209,143,133,81,80,193,103,30,163]",-2,0,1,0,0,0,161,160,160,112,1,,,,,,,,,,,,,,,,,,,,,
,,,,,,,,,,,,,,,,,,,,,,,,,,,,,,,,,,,,,,,,,,,5eac66ab9334300f4c37121b,5fb5d9463e35111d92abcbb7,2020-11-19_03h32.57.276,Colour_Similarity_Experiment,2020.1.2,Win32,60,5fb5945709dec70f2d595766,,,,,,,,,,,,,,,,,,,,PF,,,,,,,,7,1.459525,,,,,,,,,,,,,,,,,,,,,,,,,,,5,30,82,1,0,0,response1disk,9,0,0,1,0,0,rectangle,0,0,1,0,0,4,7,"[305,293,191,174,22,302,56,68,243,264,178,209,143,133,81,80,193,103,30,163]",0,0,1,0,0,0,162,161,161,136,1,,,,,,,,,,,,,,,,,,,,,
,,,,,,,,,,,,,,,,,,,,,,,,,,,,,,,,,,,,,,,,,,,5eac66ab9334300f4c37121b,5fb5d9463e35111d92abcbb7,2020-11-19_03h32.57.276,Colour_Similarity_Experiment,2020.1.2,Win32,60,5fb5945709dec70f2d595766,,,,,,,,,,,,,,,,,,,,,,,,,,,,,,,,,,,,,,,,,,,,,,,,,,,,,,,,,,,,,,,,,,,,,,,,,,,,,,,,,,,,,,,,,,,0,0,0,0,1,,,,,,,,,,,,,,
,,,,,,,,,,,,,,,,,,,,,,,,,,,,,,,,,,,,,,,,,,,5eac66ab9334300f4c37121b,5fb5d9463e35111d92abcbb7,2020-11-19_03h32.57.276,Colour_Similarity_Experiment,2020.1.2,Win32,60,5fb5945709dec70f2d595766,,,,,,,,,,,,,,,,,,,,FF,,,,,,,,5,3.20827,,,,,,,,,,,,,,,,,,,,,,,,,,,7,64,-52,1,0,0,response3disk,5,0,0,1,0,0,rectangle,-76,44,1,0,0,1,1,"[305,293,191,174,22,302,56,68,243,264,178,209,143,133,81,80,193,103,30,163]",-27,1,1,0,0,0,163,0,0,156,1,response7disk_3,rectangle,,,,,,,,,,,,,,,,,,,
,,,,,,,,,,,,,,,,,,,,,,,,,,,,,,,,,,,,,,,,,,,5eac66ab9334300f4c37121b,5fb5d9463e35111d92abcbb7,2020-11-19_03h32.57.276,Colour_Similarity_Experiment,2020.1.2,Win32,60,5fb5945709dec70f2d595766,,,,,,,,,,,,,,,,,,,,PF,,,,,,,,7,1.468085,,,,,,,,,,,,,,,,,,,,,,,,,,,9,30,81,1,0,0,response1disk,7,10,11,1,0,0,rectangle,10,11,1,0,0,1,7,"[305,293,191,174,22,302,56,68,243,264,178,209,143,133,81,80,193,103,30,163]",10,11,1,0,0,0,164,1,1,121,1,,,,,,,,,,,,,,,,,,,,,
,,,,,,,,,,,,,,,,,,,,,,,,,,,,,,,,,,,,,,,,,,,5eac66ab9334300f4c37121b,5fb5d9463e35111d92abcbb7,2020-11-19_03h32.57.276,Colour_Similarity_Experiment,2020.1.2,Win32,60,5fb5945709dec70f2d595766,,,,,,,,,,,,,,,,,,,,FF,,,,,,,,5,1.943525,,,,,,,,,,,,,,,,,,,,,,,,,,,1,95,-63,1,0,0,response3disk,8,7,-3,1,0,0,rectangle,7,-3,1,0,0,1,6,"[305,293,191,174,22,302,56,68,243,264,178,209,143,133,81,80,193,103,30,163]",7,-3,1,0,0,0,165,2,2,27,1,,,,,,,,,,,,,,,,,,,,,
,,,,,,,,,,,,,,,,,,,,,,,,,,,,,,,,,,,,,,,,,,,5eac66ab9334300f4c37121b,5fb5d9463e35111d92abcbb7,2020-11-19_03h32.57.276,Colour_Similarity_Experiment,2020.1.2,Win32,60,5fb5945709dec70f2d595766,,,,,,,,,,,,,,,,,,,,FF,,,,,,,,5,1.946155,,,,,,,,,,,,,,,,,,,,,,,,,,,4,85,-48,1,0,0,response3disk,2,-6,3,1,0,0,rectangle,-6,3,1,0,0,1,3,"[305,293,191,174,22,302,56,68,243,264,178,209,143,133,81,80,193,103,30,163]",-6,3,1,0,0,0,166,3,3,13,1,,,,,,,,,,,,,,,,,,,,,
,,,,,,,,,,,,,,,,,,,,,,,,,,,,,,,,,,,,,,,,,,,5eac66ab9334300f4c37121b,5fb5d9463e35111d92abcbb7,2020-11-19_03h32.57.276,Colour_Similarity_Experiment,2020.1.2,Win32,60,5fb5945709dec70f2d595766,,,,,,,,,,,,,,,,,,,,PF,,,,,,,,2,1.43957,,,,,,,,,,,,,,,,,,,,,,,,,,,3,-95,-54,1,0,0,response5disk,3,-7,2,1,0,0,rectangle,-7,2,1,0,0,1,7,"[305,293,191,174,22,302,56,68,243,264,178,209,143,133,81,80,193,103,30,163]",-7,2,1,0,0,0,167,4,4,4,1,,,,,,,,,,,,,,,,,,,,,
,,,,,,,,,,,,,,,,,,,,,,,,,,,,,,,,,,,,,,,,,,,5eac66ab9334300f4c37121b,5fb5d9463e35111d92abcbb7,2020-11-19_03h32.57.276,Colour_Similarity_Experiment,2020.1.2,Win32,60,5fb5945709dec70f2d595766,,,,,,,,,,,,,,,,,,,,FF,,,,,,,,2,1.444485,,,,,,,,,,,,,,,,,,,,,,,,,,,5,-75,-42,1,0,0,response5disk,3,-3,-1,1,0,0,rectangle,-3,-1,1,0,0,1,4,"[305,293,191,174,22,302,56,68,243,264,178,209,143,133,81,80,193,103,30,163]",-3,-1,1,0,0,0,168,5,5,25,1,,,,,,,,,,,,,,,,,,,,,
,,,,,,,,,,,,,,,,,,,,,,,,,,,,,,,,,,,,,,,,,,,5eac66ab9334300f4c37121b,5fb5d9463e35111d92abcbb7,2020-11-19_03h32.57.276,Colour_Similarity_Experiment,2020.1.2,Win32,60,5fb5945709dec70f2d595766,,,,,,,,,,,,,,,,,,,,PF,,,,,,,,7,1.30261,,,,,,,,,,,,,,,,,,,,,,,,,,,8,51,81,1,0,0,response1disk,4,11,5,1,0,0,rectangle,11,5,1,0,0,1,7,"[305,293,191,174,22,302,56,68,243,264,178,209,143,133,81,80,193,103,30,163]",11,5,1,0,0,0,169,6,6,78,1,,,,,,,,,,,,,,,,,,,,,
,,,,,,,,,,,,,,,,,,,,,,,,,,,,,,,,,,,,,,,,,,,5eac66ab9334300f4c37121b,5fb5d9463e35111d92abcbb7,2020-11-19_03h32.57.276,Colour_Similarity_Experiment,2020.1.2,Win32,60,5fb5945709dec70f2d595766,,,,,,,,,,,,,,,,,,,,PF,,,,,,,,3,1.470795,,,,,,,,,,,,,,,,,,,,,,,,,,,5,-33,-87,1,0,0,response5disk,3,3,0,1,0,0,rectangle,3,0,1,0,0,1,7,"[305,293,191,174,22,302,56,68,243,264,178,209,143,133,81,80,193,103,30,163]",3,0,1,0,0,0,170,7,7,109,1,,,,,,,,,,,,,,,,,,,,,
,,,,,,,,,,,,,,,,,,,,,,,,,,,,,,,,,,,,,,,,,,,5eac66ab9334300f4c37121b,5fb5d9463e35111d92abcbb7,2020-11-19_03h32.57.276,Colour_Similarity_Experiment,2020.1.2,Win32,60,5fb5945709dec70f2d595766,,,,,,,,,,,,,,,,,,,,FF,,,,,,,,5,2.144355,,,,,,,,,,,,,,,,,,,,,,,,,,,7,83,-57,1,0,0,response3disk,8,-7,-1,1,0,0,rectangle,-7,-1,1,0,0,1,3,"[305,293,191,174,22,302,56,68,243,264,178,209,143,133,81,80,193,103,30,163]",-7,-1,1,0,0,0,171,8,8,97,1,,,,,,,,,,,,,,,,,,,,,
,,,,,,,,,,,,,,,,,,,,,,,,,,,,,,,,,,,,,,,,,,,5eac66ab9334300f4c37121b,5fb5d9463e35111d92abcbb7,2020-11-19_03h32.57.276,Colour_Similarity_Experiment,2020.1.2,Win32,60,5fb5945709dec70f2d595766,,,,,,,,,,,,,,,,,,,,FF,,,,,,,,7,1.89784,,,,,,,,,,,,,,,,,,,,,,,,,,,9,52,97,1,0,0,response1disk,6,9,-14,1,0,0,rectangle,9,-14,1,0,0,1,5,"[305,293,191,174,22,302,56,68,243,264,178,209,143,133,81,80,193,103,30,163]",9,-14,1,0,0,0,172,9,9,117,1,,,,,,,,,,,,,,,,,,,,,
,,,,,,,,,,,,,,,,,,,,,,,,,,,,,,,,,,,,,,,,,,,5eac66ab9334300f4c37121b,5fb5d9463e35111d92abcbb7,2020-11-19_03h32.57.276,Colour_Similarity_Experiment,2020.1.2,Win32,60,5fb5945709dec70f2d595766,,,,,,,,,,,,,,,,,,,,PF,,,,,,,,7,1.57106,,,,,,,,,,,,,,,,,,,,,,,,,,,3,29,58,1,0,0,response1disk,9,15,10,1,0,0,rectangle,15,10,1,0,0,1,1,"[305,293,191,174,22,302,56,68,243,264,178,209,143,133,81,80,193,103,30,163]",15,10,1,0,0,0,173,10,10,79,1,,,,,,,,,,,,,,,,,,,,,
,,,,,,,,,,,,,,,,,,,,,,,,,,,,,,,,,,,,,,,,,,,5eac66ab9334300f4c37121b,5fb5d9463e35111d92abcbb7,2020-11-19_03h32.57.276,Colour_Similarity_Experiment,2020.1.2,Win32,60,5fb5945709dec70f2d595766,,,,,,,,,,,,,,,,,,,,FF,,,,,,,,7,1.19654,,,,,,,,,,,,,,,,,,,,,,,,,,,3,22,74,1,0,0,response1disk,1,8,-3,1,0,0,rectangle,74,-29,1,0,0,5,5,"[305,293,191,174,22,302,56,68,243,264,178,209,143,133,81,80,193,103,30,163]",-7,6,1,0,0,0,174,11,11,125,1,response3disk_3,rectangle,,,,,,,,,,,,,,,,,,,
,,,,,,,,,,,,,,,,,,,,,,,,,,,,,,,,,,,,,,,,,,,5eac66ab9334300f4c37121b,5fb5d9463e35111d92abcbb7,2020-11-19_03h32.57.276,Colour_Similarity_Experiment,2020.1.2,Win32,60,5fb5945709dec70f2d595766,,,,,,,,,,,,,,,,,,,,FF,,,,,,,,7,1.55263,,,,,,,,,,,,,,,,,,,,,,,,,,,9,70,84,1,0,0,response1disk,3,2,15,1,0,0,rectangle,2,15,1,0,0,5,4,"[305,293,191,174,22,302,56,68,243,264,178,209,143,133,81,80,193,103,30,163]",2,15,1,0,0,0,175,12,12,141,1,,,,,,,,,,,,,,,,,,,,,
,,,,,,,,,,,,,,,,,,,,,,,,,,,,,,,,,,,,,,,,,,,5eac66ab9334300f4c37121b,5fb5d9463e35111d92abcbb7,2020-11-19_03h32.57.276,Colour_Similarity_Experiment,2020.1.2,Win32,60,5fb5945709dec70f2d595766,,,,,,,,,,,,,,,,,,,,PF,,,,,,,,2,2.55239,,,,,,,,,,,,,,,,,,,,,,,,,,,2,-92,-59,1,0,0,response5disk,3,3,-3,1,0,0,rectangle,3,-3,1,0,0,5,6,"[305,293,191,174,22,302,56,68,243,264,178,209,143,133,81,80,193,103,30,163]",3,-3,1,0,0,0,176,13,13,69,1,,,,,,,,,,,,,,,,,,,,,
,,,,,,,,,,,,,,,,,,,,,,,,,,,,,,,,,,,,,,,,,,,5eac66ab9334300f4c37121b,5fb5d9463e35111d92abcbb7,2020-11-19_03h32.57.276,Colour_Similarity_Experiment,2020.1.2,Win32,60,5fb5945709dec70f2d595766,,,,,,,,,,,,,,,,,,,,FF,,,,,,,,7,1.313725,,,,,,,,,,,,,,,,,,,,,,,,,,,8,40,75,1,0,0,response1disk,4,2,8,1,0,0,rectangle,2,8,1,0,0,5,3,"[305,293,191,174,22,302,56,68,243,264,178,209,143,133,81,80,193,103,30,163]",2,8,1,0,0,0,177,14,14,88,1,,,,,,,,,,,,,,,,,,,,,
,,,,,,,,,,,,,,,,,,,,,,,,,,,,,,,,,,,,,,,,,,,5eac66ab9334300f4c37121b,5fb5d9463e35111d92abcbb7,2020-11-19_03h32.57.276,Colour_Similarity_Experiment,2020.1.2,Win32,60,5fb5945709dec70f2d595766,,,,,,,,,,,,,,,,,,,,FF,,,,,,,,0,1.553115,,,,,,,,,,,,,,,,,,,,,,,,,,,5,-44,89,1,0,0,response7disk,5,8,7,1,0,0,rectangle,-44,-89,1,0,0,3,3,"[305,293,191,174,22,302,56,68,243,264,178,209,143,133,81,80,193,103,30,163]",-22,-5,1,0,0,0,178,15,15,19,1,response5disk_3,rectangle,,,,,,,,,,,,,,,,,,,
,,,,,,,,,,,,,,,,,,,,,,,,,,,,,,,,,,,,,,,,,,,5eac66ab9334300f4c37121b,5fb5d9463e35111d92abcbb7,2020-11-19_03h32.57.276,Colour_Similarity_Experiment,2020.1.2,Win32,60,5fb5945709dec70f2d595766,,,,,,,,,,,,,,,,,,,,FF,,,,,,,,7,3.21126,,,,,,,,,,,,,,,,,,,,,,,,,,,2,55,69,1,0,0,response1disk,8,12,5,1,0,0,rectangle,12,5,1,0,0,3,3,"[305,293,191,174,22,302,56,68,243,264,178,209,143,133,81,80,193,103,30,163]",12,5,1,0,0,0,179,16,16,62,1,,,,,,,,,,,,,,,,,,,,,
,,,,,,,,,,,,,,,,,,,,,,,,,,,,,,,,,,,,,,,,,,,5eac66ab9334300f4c37121b,5fb5d9463e35111d92abcbb7,2020-11-19_03h32.57.276,Colour_Similarity_Experiment,2020.1.2,Win32,60,5fb5945709dec70f2d595766,,,,,,,,,,,,,,,,,,,,FF,,,,,,,,5,1.706365,,,,,,,,,,,,,,,,,,,,,,,,,,,5,98,-52,1,0,0,response3disk,6,2,-7,1,0,0,rectangle,2,-7,1,0,0,3,6,"[305,293,191,174,22,302,56,68,243,264,178,209,143,133,81,80,193,103,30,163]",2,-7,1,0,0,0,180,17,17,12,1,,,,,,,,,,,,,,,,,,,,,
,,,,,,,,,,,,,,,,,,,,,,,,,,,,,,,,,,,,,,,,,,,5eac66ab9334300f4c37121b,5fb5d9463e35111d92abcbb7,2020-11-19_03h32.57.276,Colour_Similarity_Experiment,2020.1.2,Win32,60,5fb5945709dec70f2d595766,,,,,,,,,,,,,,,,,,,,FF,,,,,,,,5,2.1144,,,,,,,,,,,,,,,,,,,,,,,,,,,8,102,-34,1,0,0,response3disk,7,6,-6,1,0,0,rectangle,6,-6,1,0,0,3,7,"[305,293,191,174,22,302,56,68,243,264,178,209,143,133,81,80,193,103,30,163]",6,-6,1,0,0,0,181,18,18,86,1,,,,,,,,,,,,,,,,,,,,,
,,,,,,,,,,,,,,,,,,,,,,,,,,,,,,,,,,,,,,,,,,,5eac66ab9334300f4c37121b,5fb5d9463e35111d92abcbb7,2020-11-19_03h32.57.276,Colour_Similarity_Experiment,2020.1.2,Win32,60,5fb5945709dec70f2d595766,,,,,,,,,,,,,,,,,,,,FF,,,,,,,,5,2.057425,,,,,,,,,,,,,,,,,,,,,,,,,,,5,94,-53,1,0,0,response3disk,2,2,-3,1,0,0,rectangle,2,-3,1,0,0,3,7,"[305,293,191,174,22,302,56,68,243,264,178,209,143,133,81,80,193,103,30,163]",2,-3,1,0,0,0,182,19,19,55,1,,,,,,,,,,,,,,,,,,,,,
,,,,,,,,,,,,,,,,,,,,,,,,,,,,,,,,,,,,,,,,,,,5eac66ab9334300f4c37121b,5fb5d9463e35111d92abcbb7,2020-11-19_03h32.57.276,Colour_Similarity_Experiment,2020.1.2,Win32,60,5fb5945709dec70f2d595766,,,,,,,,,,,,,,,,,,,,PF,,,,,,,,0,1.580035,,,,,,,,,,,,,,,,,,,,,,,,,,,8,-34,77,1,0,0,response7disk,8,14,4,1,0,0,rectangle,14,4,1,0,0,3,7,"[305,293,191,174,22,302,56,68,243,264,178,209,143,133,81,80,193,103,30,163]",14,4,1,0,0,0,183,20,20,153,1,,,,,,,,,,,,,,,,,,,,,
,,,,,,,,,,,,,,,,,,,,,,,,,,,,,,,,,,,,,,,,,,,5eac66ab9334300f4c37121b,5fb5d9463e35111d92abcbb7,2020-11-19_03h32.57.276,Colour_Similarity_Experiment,2020.1.2,Win32,60,5fb5945709dec70f2d595766,,,,,,,,,,,,,,,,,,,,PF,,,,,,,,7,1.608515,,,,,,,,,,,,,,,,,,,,,,,,,,,2,58,101,1,0,0,response1disk,7,-12,2,1,0,0,rectangle,-12,2,1,0,0,3,0,"[305,293,191,174,22,302,56,68,243,264,178,209,143,133,81,80,193,103,30,163]",-12,2,1,0,0,0,184,21,21,107,1,,,,,,,,,,,,,,,,,,,,,
,,,,,,,,,,,,,,,,,,,,,,,,,,,,,,,,,,,,,,,,,,,5eac66ab9334300f4c37121b,5fb5d9463e35111d92abcbb7,2020-11-19_03h32.57.276,Colour_Similarity_Experiment,2020.1.2,Win32,60,5fb5945709dec70f2d595766,,,,,,,,,,,,,,,,,,,,FF,,,,,,,,7,1.490495,,,,,,,,,,,,,,,,,,,,,,,,,,,8,46,75,1,0,0,response1disk,1,10,3,1,0,0,rectangle,10,3,1,0,0,3,1,"[305,293,191,174,22,302,56,68,243,264,178,209,143,133,81,80,193,103,30,163]",10,3,1,0,0,0,185,22,22,20,1,,,,,,,,,,,,,,,,,,,,,
,,,,,,,,,,,,,,,,,,,,,,,,,,,,,,,,,,,,,,,,,,,5eac66ab9334300f4c37121b,5fb5d9463e35111d92abcbb7,2020-11-19_03h32.57.276,Colour_Similarity_Experiment,2020.1.2,Win32,60,5fb5945709dec70f2d595766,,,,,,,,,,,,,,,,,,,,PF,,,,,,,,5,2.60667,,,,,,,,,,,,,,,,,,,,,,,,,,,2,78,-48,1,0,0,response3disk,1,-8,-2,1,0,0,rectangle,-8,-2,1,0,0,3,1,"[305,293,191,174,22,302,56,68,243,264,178,209,143,133,81,80,193,103,30,163]",-8,-2,1,0,0,0,186,23,23,9,1,,,,,,,,,,,,,,,,,,,,,
,,,,,,,,,,,,,,,,,,,,,,,,,,,,,,,,,,,,,,,,,,,5eac66ab9334300f4c37121b,5fb5d9463e35111d92abcbb7,2020-11-19_03h32.57.276,Colour_Similarity_Experiment,2020.1.2,Win32,60,5fb5945709dec70f2d595766,,,,,,,,,,,,,,,,,,,,FF,,,,,,,,3,1.397825,,,,,,,,,,,,,,,,,,,,,,,,,,,5,-35,-67,1,0,0,response5disk,4,10,0,1,0,0,rectangle,10,0,1,0,0,3,0,"[305,293,191,174,22,302,56,68,243,264,178,209,143,133,81,80,193,103,30,163]",10,0,1,0,0,0,187,24,24,8,1,,,,,,,,,,,,,,,,,,,,,
,,,,,,,,,,,,,,,,,,,,,,,,,,,,,,,,,,,,,,,,,,,5eac66ab9334300f4c37121b,5fb5d9463e35111d92abcbb7,2020-11-19_03h32.57.276,Colour_Similarity_Experiment,2020.1.2,Win32,60,5fb5945709dec70f2d595766,,,,,,,,,,,,,,,,,,,,FF,,,,,,,,6,1.33935,,,,,,,,,,,,,,,,,,,,,,,,,,,3,57,36,1,0,0,response1disk,7,5,0,1,0,0,rectangle,5,0,1,0,0,3,0,"[305,293,191,174,22,302,56,68,243,264,178,209,143,133,81,80,193,103,30,163]",5,0,1,0,0,0,188,25,25,118,1,,,,,,,,,,,,,,,,,,,,,
,,,,,,,,,,,,,,,,,,,,,,,,,,,,,,,,,,,,,,,,,,,5eac66ab9334300f4c37121b,5fb5d9463e35111d92abcbb7,2020-11-19_03h32.57.276,Colour_Similarity_Experiment,2020.1.2,Win32,60,5fb5945709dec70f2d595766,,,,,,,,,,,,,,,,,,,,FF,,,,,,,,6,1.253155,,,,,,,,,,,,,,,,,,,,,,,,,,,7,69,26,1,0,0,response1disk,2,2,-10,1,0,0,rectangle,2,-10,1,0,0,3,5,"[305,293,191,174,22,302,56,68,243,264,178,209,143,133,81,80,193,103,30,163]",2,-10,1,0,0,0,189,26,26,138,1,,,,,,,,,,,,,,,,,,,,,
,,,,,,,,,,,,,,,,,,,,,,,,,,,,,,,,,,,,,,,,,,,5eac66ab9334300f4c37121b,5fb5d9463e35111d92abcbb7,2020-11-19_03h32.57.276,Colour_Similarity_Experiment,2020.1.2,Win32,60,5fb5945709dec70f2d595766,,,,,,,,,,,,,,,,,,,,PF,,,,,,,,7,1.374835,,,,,,,,,,,,,,,,,,,,,,,,,,,4,38,52,1,0,0,response1disk,1,10,8,1,0,0,rectangle,10,8,1,0,0,3,1,"[305,293,191,174,22,302,56,68,243,264,178,209,143,133,81,80,193,103,30,163]",10,8,1,0,0,0,190,27,27,115,1,,,,,,,,,,,,,,,,,,,,,
,,,,,,,,,,,,,,,,,,,,,,,,,,,,,,,,,,,,,,,,,,,5eac66ab9334300f4c37121b,5fb5d9463e35111d92abcbb7,2020-11-19_03h32.57.276,Colour_Similarity_Experiment,2020.1.2,Win32,60,5fb5945709dec70f2d595766,,,,,,,,,,,,,,,,,,,,PF,,,,,,,,7,1.326705,,,,,,,,,,,,,,,,,,,,,,,,,,,1,45,66,1,0,0,response1disk,6,3,1,1,0,0,rectangle,88,-41,1,0,0,5,5,"[305,293,191,174,22,302,56,68,243,264,178,209,143,133,81,80,193,103,30,163]",-8,-1,1,0,0,0,191,28,28,144,1,response3disk_3,rectangle,,,,,,,,,,,,,,,,,,,
,,,,,,,,,,,,,,,,,,,,,,,,,,,,,,,,,,,,,,,,,,,5eac66ab9334300f4c37121b,5fb5d9463e35111d92abcbb7,2020-11-19_03h32.57.276,Colour_Similarity_Experiment,2020.1.2,Win32,60,5fb5945709dec70f2d595766,,,,,,,,,,,,,,,,,,,,FF,,,,,,,,3,2.814295,,,,,,,,,,,,,,,,,,,,,,,,,,,9,-42,-74,1,0,0,response5disk,1,0,-7,1,0,0,rectangle,0,-7,1,0,0,5,3,"[305,293,191,174,22,302,56,68,243,264,178,209,143,133,81,80,193,103,30,163]",0,-7,1,0,0,0,192,29,29,111,1,,,,,,,,,,,,,,,,,,,,,
,,,,,,,,,,,,,,,,,,,,,,,,,,,,,,,,,,,,,,,,,,,5eac66ab9334300f4c37121b,5fb5d9463e35111d92abcbb7,2020-11-19_03h32.57.276,Colour_Similarity_Experiment,2020.1.2,Win32,60,5fb5945709dec70f2d595766,,,,,,,,,,,,,,,,,,,,FF,,,,,,,,5,1.442895,,,,,,,,,,,,,,,,,,,,,,,,,,,7,70,-46,1,0,0,response3disk,3,6,-4,1,0,0,rectangle,78,36,1,0,0,6,6,"[305,293,191,174,22,302,56,68,243,264,178,209,143,133,81,80,193,103,30,163]",15,0,1,0,0,0,193,30,30,73,1,response1disk_3,rectangle,,,,,,,,,,,,,,,,,,,
,,,,,,,,,,,,,,,,,,,,,,,,,,,,,,,,,,,,,,,,,,,5eac66ab9334300f4c37121b,5fb5d9463e35111d92abcbb7,2020-11-19_03h32.57.276,Colour_Similarity_Experiment,2020.1.2,Win32,60,5fb5945709dec70f2d595766,,,,,,,,,,,,,,,,,,,,FF,,,,,,,,7,1.541425,,,,,,,,,,,,,,,,,,,,,,,,,,,3,33,74,1,0,0,response1disk,9,3,-2,1,0,0,rectangle,3,-2,1,0,0,6,0,"[305,293,191,174,22,302,56,68,243,264,178,209,143,133,81,80,193,103,30,163]",3,-2,1,0,0,0,194,31,31,143,1,,,,,,,,,,,,,,,,,,,,,
,,,,,,,,,,,,,,,,,,,,,,,,,,,,,,,,,,,,,,,,,,,5eac66ab9334300f4c37121b,5fb5d9463e35111d92abcbb7,2020-11-19_03h32.57.276,Colour_Similarity_Experiment,2020.1.2,Win32,60,5fb5945709dec70f2d595766,,,,,,,,,,,,,,,,,,,,PF,,,,,,,,7,1.25106,,,,,,,,,,,,,,,,,,,,,,,,,,,8,28,66,1,0,0,response1disk,3,-2,5,1,0,0,rectangle,-2,5,1,0,0,6,4,"[305,293,191,174,22,302,56,68,243,264,178,209,143,133,81,80,193,103,30,163]",-2,5,1,0,0,0,195,32,32,71,1,,,,,,,,,,,,,,,,,,,,,
,,,,,,,,,,,,,,,,,,,,,,,,,,,,,,,,,,,,,,,,,,,5eac66ab9334300f4c37121b,5fb5d9463e35111d92abcbb7,2020-11-19_03h32.57.276,Colour_Similarity_Experiment,2020.1.2,Win32,60,5fb5945709dec70f2d595766,,,,,,,,,,,,,,,,,,,,PF,,,,,,,,3,1.9558,,,,,,,,,,,,,,,,,,,,,,,,,,,4,-37,-84,1,0,0,response5disk,5,9,6,1,0,0,rectangle,9,6,1,0,0,6,6,"[305,293,191,174,22,302,56,68,243,264,178,209,143,133,81,80,193,103,30,163]",9,6,1,0,0,0,196,33,33,49,1,,,,,,,,,,,,,,,,,,,,,
,,,,,,,,,,,,,,,,,,,,,,,,,,,,,,,,,,,,,,,,,,,5eac66ab9334300f4c37121b,5fb5d9463e35111d92abcbb7,2020-11-19_03h32.57.276,Colour_Similarity_Experiment,2020.1.2,Win32,60,5fb5945709dec70f2d595766,,,,,,,,,,,,,,,,,,,,FF,,,,,,,,6,3.367095,,,,,,,,,,,,,,,,,,,,,,,,,,,8,77,42,1,0,0,response1disk,6,15,2,1,0,0,rectangle,15,2,1,0,0,6,1,"[305,293,191,174,22,302,56,68,243,264,178,209,143,133,81,80,193,103,30,163]",15,2,1,0,0,0,197,34,34,37,1,,,,,,,,,,,,,,,,,,,,,
,,,,,,,,,,,,,,,,,,,,,,,,,,,,,,,,,,,,,,,,,,,5eac66ab9334300f4c37121b,5fb5d9463e35111d92abcbb7,2020-11-19_03h32.57.276,Colour_Similarity_Experiment,2020.1.2,Win32,60,5fb5945709dec70f2d595766,,,,,,,,,,,,,,,,,,,,PF,,,,,,,,4,1.868735,,,,,,,,,,,,,,,,,,,,,,,,,,,5,32,-95,1,0,0,response3disk,4,-5,-4,1,0,0,rectangle,-5,-4,1,0,0,6,4,"[305,293,191,174,22,302,56,68,243,264,178,209,143,133,81,80,193,103,30,163]",-5,-4,1,0,0,0,198,35,35,54,1,,,,,,,,,,,,,,,,,,,,,
,,,,,,,,,,,,,,,,,,,,,,,,,,,,,,,,,,,,,,,,,,,5eac66ab9334300f4c37121b,5fb5d9463e35111d92abcbb7,2020-11-19_03h32.57.276,Colour_Similarity_Experiment,2020.1.2,Win32,60,5fb5945709dec70f2d595766,,,,,,,,,,,,,,,,,,,,FF,,,,,,,,7,1.636045,,,,,,,,,,,,,,,,,,,,,,,,,,,1,24,72,1,0,0,response1disk,4,-5,4,1,0,0,rectangle,-5,4,1,0,0,6,0,"[305,293,191,174,22,302,56,68,243,264,178,209,143,133,81,80,193,103,30,163]",-5,4,1,0,0,0,199,36,36,135,1,,,,,,,,,,,,,,,,,,,,,
,,,,,,,,,,,,,,,,,,,,,,,,,,,,,,,,,,,,,,,,,,,5eac66ab9334300f4c37121b,5fb5d9463e35111d92abcbb7,2020-11-19_03h32.57.276,Colour_Similarity_Experiment,2020.1.2,Win32,60,5fb5945709dec70f2d595766,,,,,,,,,,,,,,,,,,,,PF,,,,,,,,7,1.453305,,,,,,,,,,,,,,,,,,,,,,,,,,,7,35,81,1,0,0,response1disk,9,-1,6,1,0,0,rectangle,-1,6,1,0,0,6,0,"[305,293,191,174,22,302,56,68,243,264,178,209,143,133,81,80,193,103,30,163]",-1,6,1,0,0,0,200,37,37,10,1,,,,,,,,,,,,,,,,,,,,,
,,,,,,,,,,,,,,,,,,,,,,,,,,,,,,,,,,,,,,,,,,,5eac66ab9334300f4c37121b,5fb5d9463e35111d92abcbb7,2020-11-19_03h32.57.276,Colour_Similarity_Experiment,2020.1.2,Win32,60,5fb5945709dec70f2d595766,,,,,,,,,,,,,,,,,,,,FF,,,,,,,,3,1.497645,,,,,,,,,,,,,,,,,,,,,,,,,,,4,-40,-65,1,0,0,response5disk,5,-14,-6,1,0,0,rectangle,-14,-6,1,0,0,6,4,"[305,293,191,174,22,302,56,68,243,264,178,209,143,133,81,80,193,103,30,163]",-14,-6,1,0,0,0,201,38,38,116,1,,,,,,,,,,,,,,,,,,,,,
,,,,,,,,,,,,,,,,,,,,,,,,,,,,,,,,,,,,,,,,,,,5eac66ab9334300f4c37121b,5fb5d9463e35111d92abcbb7,2020-11-19_03h32.57.276,Colour_Similarity_Experiment,2020.1.2,Win32,60,5fb5945709dec70f2d595766,,,,,,,,,,,,,,,,,,,,FF,,,,,,,,5,1.90319,,,,,,,,,,,,,,,,,,,,,,,,,,,2,82,-29,1,0,0,response3disk,9,6,-4,1,0,0,rectangle,6,-4,1,0,0,6,0,"[305,293,191,174,22,302,56,68,243,264,178,209,143,133,81,80,193,103,30,163]",6,-4,1,0,0,0,202,39,39,72,1,,,,,,,,,,,,,,,,,,,,,
,,,,,,,,,,,,,,,,,,,,,,,,,,,,,,,,,,,,,,,,,,,5eac66ab9334300f4c37121b,5fb5d9463e35111d92abcbb7,2020-11-19_03h32.57.276,Colour_Similarity_Experiment,2020.1.2,Win32,60,5fb5945709dec70f2d595766,,,,,,,,,,,,,,,,,,,,PF,,,,,,,,0,1.30163,,,,,,,,,,,,,,,,,,,,,,,,,,,5,-49,88,1,0,0,response7disk,5,-7,13,1,0,0,rectangle,-7,13,1,0,0,6,3,"[305,293,191,174,22,302,56,68,243,264,178,209,143,133,81,80,193,103,30,163]",-7,13,1,0,0,0,203,40,40,94,1,,,,,,,,,,,,,,,,,,,,,
,,,,,,,,,,,,,,,,,,,,,,,,,,,,,,,,,,,,,,,,,,,5eac66ab9334300f4c37121b,5fb5d9463e35111d92abcbb7,2020-11-19_03h32.57.276,Colour_Similarity_Experiment,2020.1.2,Win32,60,5fb5945709dec70f2d595766,,,,,,,,,,,,,,,,,,,,FF,,,,,,,,7,1.51524,,,,,,,,,,,,,,,,,,,,,,,,,,,8,34,72,1,0,0,response1disk,3,7,-4,1,0,0,rectangle,7,-4,1,0,0,6,3,"[305,293,191,174,22,302,56,68,243,264,178,209,143,133,81,80,193,103,30,163]",7,-4,1,0,0,0,204,41,41,154,1,,,,,,,,,,,,,,,,,,,,,
,,,,,,,,,,,,,,,,,,,,,,,,,,,,,,,,,,,,,,,,,,,5eac66ab9334300f4c37121b,5fb5d9463e35111d92abcbb7,2020-11-19_03h32.57.276,Colour_Similarity_Experiment,2020.1.2,Win32,60,5fb5945709dec70f2d595766,,,,,,,,,,,,,,,,,,,,FF,,,,,,,,7,1.568505,,,,,,,,,,,,,,,,,,,,,,,,,,,4,40,89,1,0,0,response1disk,1,-8,-2,1,0,0,rectangle,-8,-2,1,0,0,6,6,"[305,293,191,174,22,302,56,68,243,264,178,209,143,133,81,80,193,103,30,163]",-8,-2,1,0,0,0,205,42,42,102,1,,,,,,,,,,,,,,,,,,,,,
