key_resp.keys,key_resp.rt,key_resp_16.keys,key_resp_16.rt,key_resp_2.keys,key_resp_2.rt,X Scale,ratio_pxpermm,screen_size_x,screen_size_y,testsize,key_resp_3.keys,key_resp_3.rt,key_resp_4.keys,key_resp_4.rt,line_size,key_resp_5.keys,key_resp_5.rt,key_resp_6.keys,key_resp_6.rt,key_resp_8.keys,key_resp_8.rt,key_resp_7.keys,key_resp_7.rt,key_resp_12.keys,key_resp_12.rt,key_resp_11.keys,key_resp_11.rt,key_resp_18.keys,key_resp_18.rt,key_resp_21.keys,key_resp_21.rt,key_resp_13.keys,key_resp_13.rt,key_resp_19.keys,key_resp_19.rt,ballposx,viewer_distance,trials.thisRepN,trials.thisTrialN,trials.thisN,trials.thisIndex,trials.ran,participant,session,date,expName,psychopyVersion,OS,frameRate,study_id,viewerdistancecm,DVA_to_distance,radius_F,radius_P,r_F,R_P,key_resp_20.keys,key_resp_20.rt,key_resp_14.keys,key_resp_14.rt,key_resp_15.keys,key_resp_15.rt,key_resp_17.keys,key_resp_17.rt,key_resp_9.keys,key_resp_9.rt,key_resp_10.keys,key_resp_10.rt,Colour_1,Ecc,mouse_5.x,mouse_5.y,mouse_5.leftButton,mouse_5.midButton,mouse_5.rightButton,mouse_5.clicked_name,Colour_2,similarity,response_time,mouse_10.x,mouse_10.y,mouse_10.leftButton,mouse_10.midButton,mouse_10.rightButton,mouse_10.clicked_name,mouse_7.x,mouse_7.y,mouse_7.leftButton,mouse_7.midButton,mouse_7.rightButton,catchnumberprac,mouse_6.x,mouse_6.y,mouse_6.leftButton,mouse_6.midButton,mouse_6.rightButton,duringprac.thisRepN,duringprac.thisTrialN,duringprac.thisN,duringprac.thisIndex,duringprac.ran,mouse_7.clicked_name,catchprac,mouse_6.clicked_name,key_resp_22.keys,key_resp_22.rt,Colour1,mouse.x,mouse.y,mouse.leftButton,mouse.midButton,mouse.rightButton,mouse.clicked_name,Colour2,mouse_2.x,mouse_2.y,mouse_2.leftButton,mouse_2.midButton,mouse_2.rightButton,mouse_2.clicked_name,mouse_3.x,mouse_3.y,mouse_3.leftButton,mouse_3.midButton,mouse_3.rightButton,catchresponse,catchnumber,catchtrialorder,mouse_11.x,mouse_11.y,mouse_11.leftButton,mouse_11.midButton,mouse_11.rightButton,trials_2.thisRepN,trialnumber,trials_2.thisTrialN,trials_2.thisN,trials_2.thisIndex,trials_2.ran,mouse_3.clicked_name,mouse_11.clicked_name,trials_3.thisRepN,trials_3.thisTrialN,trials_3.thisN,trials_3.thisIndex,trials_3.ran,answer1,rt1,answer2,rt2,answer3,rt3,answer4,rt4,answer5,rt5,answer6,rt6,answer7,rt7
space,2.69616,space,3.90671,space,5.14089,47.3,4.73,405.9196617,228.3298097,1920,space,22.315145,space,9.81866,94.6,space,3.920845,space,4.402295,space,1.052355,space,2.84,space,5.28003,space,7.60158,space,3.594805,space,0.885185,space,2.68033,return,30.521805,-3568.32,3818.621438,0,0,0,0,1,5eadd6d03dcdd00d2aea4c72,5fb5d86bb10d321df4d83ada,2020-11-18_20h50.28.028,Colour_Similarity_Experiment,2020.1.2,Win32,60,5fb5945709dec70f2d595766,,,,,,,,,,,,,,,,,,,,,,,,,,,,,,,,,,,,,,,,,,,,,,,,,,,,,,,,,,,,,,,,,,,,,,,,,,,,,,,,,,,,,,,,,,,,,,,,,,,,,,,,,,,,,,
,,,,,,,,,,,,,,,,,,,,,,,,,,,,,,,,,,return,3.555875,-51.84,721.9620784,1,0,1,0,1,5eadd6d03dcdd00d2aea4c72,5fb5d86bb10d321df4d83ada,2020-11-18_20h50.28.028,Colour_Similarity_Experiment,2020.1.2,Win32,60,5fb5945709dec70f2d595766,,,,,,,,,,,,,,,,,,,,,,,,,,,,,,,,,,,,,,,,,,,,,,,,,,,,,,,,,,,,,,,,,,,,,,,,,,,,,,,,,,,,,,,,,,,,,,,,,,,,,,,,,,,,,,
,,,,,,,,,,,,,,,,,,,,,,,,,,,,,,,,,,return,3.220925,20.16,658.5579146,2,0,2,0,1,5eadd6d03dcdd00d2aea4c72,5fb5d86bb10d321df4d83ada,2020-11-18_20h50.28.028,Colour_Similarity_Experiment,2020.1.2,Win32,60,5fb5945709dec70f2d595766,,,,,,,,,,,,,,,,,,,,,,,,,,,,,,,,,,,,,,,,,,,,,,,,,,,,,,,,,,,,,,,,,,,,,,,,,,,,,,,,,,,,,,,,,,,,,,,,,,,,,,,,,,,,,,
,,,,,,,,,,,,,,,,,,,,,,,,,,,,,,,,,,return,3.53586,-46.08,716.8897453,3,0,3,0,1,5eadd6d03dcdd00d2aea4c72,5fb5d86bb10d321df4d83ada,2020-11-18_20h50.28.028,Colour_Similarity_Experiment,2020.1.2,Win32,60,5fb5945709dec70f2d595766,,,,,,,,,,,,,,,,,,,,,,,,,,,,,,,,,,,,,,,,,,,,,,,,,,,,,,,,,,,,,,,,,,,,,,,,,,,,,,,,,,,,,,,,,,,,,,,,,,,,,,,,,,,,,,
,,,,,,,,,,,,,,,,,,,,,,,,,,,,,,,,,,return,4.81911,-322.56,960.3617343,4,0,4,0,1,5eadd6d03dcdd00d2aea4c72,5fb5d86bb10d321df4d83ada,2020-11-18_20h50.28.028,Colour_Similarity_Experiment,2020.1.2,Win32,60,5fb5945709dec70f2d595766,,,,,,,,,,,,,,,,,,,,,,,,,,,,,,,,,,,,,,,,,,,,,,,,,,,,,,,,,,,,,,,,,,,,,,,,,,,,,,,,,,,,,,,,,,,,,,,,,,,,,,,,,,,,,,
,,,,,,,,,,,,,,,,,,,,,,,,,,,,,,,,,,,,,,,,,,,5eadd6d03dcdd00d2aea4c72,5fb5d86bb10d321df4d83ada,2020-11-18_20h50.28.028,Colour_Similarity_Experiment,2020.1.2,Win32,60,5fb5945709dec70f2d595766,138,24.08798099,170.9042251,1139.361501,113.9361501,512.7126753,space,3.03841,space,3.53338,space,3.91668,space,1.920575,space,0.93991,space,3.796085,4,PF,129,-51,1,0,0,response3disk_5,7,5,12.04995,-4,-1,1,0,0,rectangle_8,-4,-1,1,0,0,3,-4,-1,1,0,0,0,0,0,6,1,,,,,,,,,,,,,,,,,,,,,,,,,,,,,,,,,,,,,,,,,,,,,,,,,,,,,,,,,,,
,,,,,,,,,,,,,,,,,,,,,,,,,,,,,,,,,,,,,,,,,,,5eadd6d03dcdd00d2aea4c72,5fb5d86bb10d321df4d83ada,2020-11-18_20h50.28.028,Colour_Similarity_Experiment,2020.1.2,Win32,60,5fb5945709dec70f2d595766,,,,,,,,,,,,,,,,,,,8,PF,-137,57,1,0,0,response7disk_5,4,1,3.92568,-10,8,1,0,0,rectangle_8,-75,-124,1,0,0,3,-6,-1,1,0,0,0,1,1,1,1,response5disk_7,3,rectangle_4,,,,,,,,,,,,,,,,,,,,,,,,,,,,,,,,,,,,,,,,,,,,,,,,,,,,,,,,
,,,,,,,,,,,,,,,,,,,,,,,,,,,,,,,,,,,,,,,,,,,5eadd6d03dcdd00d2aea4c72,5fb5d86bb10d321df4d83ada,2020-11-18_20h50.28.028,Colour_Similarity_Experiment,2020.1.2,Win32,60,5fb5945709dec70f2d595766,,,,,,,,,,,,,,,,,,,5,PF,59,115,1,0,0,response1disk_5,9,7,7.7866,-2,0,1,0,0,rectangle_8,-2,0,1,0,0,3,-2,0,1,0,0,0,2,2,4,1,,,,,,,,,,,,,,,,,,,,,,,,,,,,,,,,,,,,,,,,,,,,,,,,,,,,,,,,,,,
,,,,,,,,,,,,,,,,,,,,,,,,,,,,,,,,,,,,,,,,,,,5eadd6d03dcdd00d2aea4c72,5fb5d86bb10d321df4d83ada,2020-11-18_20h50.28.028,Colour_Similarity_Experiment,2020.1.2,Win32,60,5fb5945709dec70f2d595766,,,,,,,,,,,,,,,,,,,8,FF,56,102,1,0,0,response1disk_5,7,7,8.142075,0,0,1,0,0,rectangle_8,0,0,1,0,0,3,0,0,1,0,0,0,3,3,0,1,,,,,,,,,,,,,,,,,,,,,,,,,,,,,,,,,,,,,,,,,,,,,,,,,,,,,,,,,,,
,,,,,,,,,,,,,,,,,,,,,,,,,,,,,,,,,,,,,,,,,,,5eadd6d03dcdd00d2aea4c72,5fb5d86bb10d321df4d83ada,2020-11-18_20h50.28.028,Colour_Similarity_Experiment,2020.1.2,Win32,60,5fb5945709dec70f2d595766,,,,,,,,,,,,,,,,,,,5,PF,-62,-124,1,0,0,response5disk_5,7,3,8.253045,-8,-3,1,0,0,rectangle_8,-8,-3,1,0,0,3,-8,-3,1,0,0,0,4,4,2,1,,,,,,,,,,,,,,,,,,,,,,,,,,,,,,,,,,,,,,,,,,,,,,,,,,,,,,,,,,,
,,,,,,,,,,,,,,,,,,,,,,,,,,,,,,,,,,,,,,,,,,,5eadd6d03dcdd00d2aea4c72,5fb5d86bb10d321df4d83ada,2020-11-18_20h50.28.028,Colour_Similarity_Experiment,2020.1.2,Win32,60,5fb5945709dec70f2d595766,,,,,,,,,,,,,,,,,,,9,FF,110,61,1,0,0,response1disk_5,9,6,2.99679,-1,2,1,0,0,rectangle_8,-1,2,1,0,0,3,-1,2,1,0,0,0,5,5,3,1,,,,,,,,,,,,,,,,,,,,,,,,,,,,,,,,,,,,,,,,,,,,,,,,,,,,,,,,,,,
,,,,,,,,,,,,,,,,,,,,,,,,,,,,,,,,,,,,,,,,,,,5eadd6d03dcdd00d2aea4c72,5fb5d86bb10d321df4d83ada,2020-11-18_20h50.28.028,Colour_Similarity_Experiment,2020.1.2,Win32,60,5fb5945709dec70f2d595766,,,,,,,,,,,,,,,,,,,6,FF,-64,-117,1,0,0,response5disk_5,7,3,1.941685,-8,0,1,0,0,rectangle_8,-8,0,1,0,0,3,-8,0,1,0,0,0,6,6,5,1,,,,,,,,,,,,,,,,,,,,,,,,,,,,,,,,,,,,,,,,,,,,,,,,,,,,,,,,,,,
,,,,,,,,,,,,,,,,,,,,,,,,,,,,,,,,,,,,,,,,,,,5eadd6d03dcdd00d2aea4c72,5fb5d86bb10d321df4d83ada,2020-11-18_20h50.28.028,Colour_Similarity_Experiment,2020.1.2,Win32,60,5fb5945709dec70f2d595766,,,,,,,,,,,,,,,,,,,,FF,,,,,,,,1,6.543945,,,,,,,,,,,,,,,,,,,,,,,,,,space,3.727115,7,-96,55,1,0,0,response7disk,6,0,-5,1,0,0,rectangle,0,-5,1,0,0,,7,"[155,64,177,202,85,236,29,21,18,248,222,187,291,79,223,173,307,57,102,272]",0,-5,1,0,0,0,1,0,0,31,1,,,,,,,,,,,,,,,,,,,,,
,,,,,,,,,,,,,,,,,,,,,,,,,,,,,,,,,,,,,,,,,,,5eadd6d03dcdd00d2aea4c72,5fb5d86bb10d321df4d83ada,2020-11-18_20h50.28.028,Colour_Similarity_Experiment,2020.1.2,Win32,60,5fb5945709dec70f2d595766,,,,,,,,,,,,,,,,,,,,FF,,,,,,,,3,2.321625,,,,,,,,,,,,,,,,,,,,,,,,,,,,3,-53,-145,1,0,0,response5disk,4,5,0,1,0,0,rectangle,5,0,1,0,0,,6,"[155,64,177,202,85,236,29,21,18,248,222,187,291,79,223,173,307,57,102,272]",5,0,1,0,0,0,2,1,1,110,1,,,,,,,,,,,,,,,,,,,,,
,,,,,,,,,,,,,,,,,,,,,,,,,,,,,,,,,,,,,,,,,,,5eadd6d03dcdd00d2aea4c72,5fb5d86bb10d321df4d83ada,2020-11-18_20h50.28.028,Colour_Similarity_Experiment,2020.1.2,Win32,60,5fb5945709dec70f2d595766,,,,,,,,,,,,,,,,,,,,PF,,,,,,,,7,1.56167,,,,,,,,,,,,,,,,,,,,,,,,,,,,2,60,104,1,0,0,response1disk,9,-8,-6,1,0,0,rectangle,-8,-6,1,0,0,,7,"[155,64,177,202,85,236,29,21,18,248,222,187,291,79,223,173,307,57,102,272]",-8,-6,1,0,0,0,3,2,2,39,1,,,,,,,,,,,,,,,,,,,,,
,,,,,,,,,,,,,,,,,,,,,,,,,,,,,,,,,,,,,,,,,,,5eadd6d03dcdd00d2aea4c72,5fb5d86bb10d321df4d83ada,2020-11-18_20h50.28.028,Colour_Similarity_Experiment,2020.1.2,Win32,60,5fb5945709dec70f2d595766,,,,,,,,,,,,,,,,,,,,FF,,,,,,,,3,1.53462,,,,,,,,,,,,,,,,,,,,,,,,,,,,8,-62,-136,1,0,0,response5disk,1,-18,3,1,0,0,rectangle,-18,3,1,0,0,,2,"[155,64,177,202,85,236,29,21,18,248,222,187,291,79,223,173,307,57,102,272]",-18,3,1,0,0,0,4,3,3,20,1,,,,,,,,,,,,,,,,,,,,,
,,,,,,,,,,,,,,,,,,,,,,,,,,,,,,,,,,,,,,,,,,,5eadd6d03dcdd00d2aea4c72,5fb5d86bb10d321df4d83ada,2020-11-18_20h50.28.028,Colour_Similarity_Experiment,2020.1.2,Win32,60,5fb5945709dec70f2d595766,,,,,,,,,,,,,,,,,,,,PF,,,,,,,,4,1.99708,,,,,,,,,,,,,,,,,,,,,,,,,,,,2,59,-131,1,0,0,response3disk,2,-2,-5,1,0,0,rectangle,-2,-5,1,0,0,,5,"[155,64,177,202,85,236,29,21,18,248,222,187,291,79,223,173,307,57,102,272]",-2,-5,1,0,0,0,5,4,4,14,1,,,,,,,,,,,,,,,,,,,,,
,,,,,,,,,,,,,,,,,,,,,,,,,,,,,,,,,,,,,,,,,,,5eadd6d03dcdd00d2aea4c72,5fb5d86bb10d321df4d83ada,2020-11-18_20h50.28.028,Colour_Similarity_Experiment,2020.1.2,Win32,60,5fb5945709dec70f2d595766,,,,,,,,,,,,,,,,,,,,PF,,,,,,,,4,0.77637,,,,,,,,,,,,,,,,,,,,,,,,,,,,8,66,-141,1,0,0,response3disk,8,0,-16,1,0,0,rectangle,0,-16,1,0,0,,3,"[155,64,177,202,85,236,29,21,18,248,222,187,291,79,223,173,307,57,102,272]",0,-16,1,0,0,0,6,5,5,153,1,,,,,,,,,,,,,,,,,,,,,
,,,,,,,,,,,,,,,,,,,,,,,,,,,,,,,,,,,,,,,,,,,5eadd6d03dcdd00d2aea4c72,5fb5d86bb10d321df4d83ada,2020-11-18_20h50.28.028,Colour_Similarity_Experiment,2020.1.2,Win32,60,5fb5945709dec70f2d595766,,,,,,,,,,,,,,,,,,,,PF,,,,,,,,1,1.04984,,,,,,,,,,,,,,,,,,,,,,,,,,,,5,-87,45,1,0,0,response7disk,3,2,-5,1,0,0,rectangle,2,-5,1,0,0,,3,"[155,64,177,202,85,236,29,21,18,248,222,187,291,79,223,173,307,57,102,272]",2,-5,1,0,0,0,7,6,6,109,1,,,,,,,,,,,,,,,,,,,,,
,,,,,,,,,,,,,,,,,,,,,,,,,,,,,,,,,,,,,,,,,,,5eadd6d03dcdd00d2aea4c72,5fb5d86bb10d321df4d83ada,2020-11-18_20h50.28.028,Colour_Similarity_Experiment,2020.1.2,Win32,60,5fb5945709dec70f2d595766,,,,,,,,,,,,,,,,,,,,FF,,,,,,,,3,1.0561,,,,,,,,,,,,,,,,,,,,,,,,,,,,4,-51,-128,1,0,0,response5disk,2,7,-5,1,0,0,rectangle,7,-5,1,0,0,,6,"[155,64,177,202,85,236,29,21,18,248,222,187,291,79,223,173,307,57,102,272]",7,-5,1,0,0,0,8,7,7,13,1,,,,,,,,,,,,,,,,,,,,,
,,,,,,,,,,,,,,,,,,,,,,,,,,,,,,,,,,,,,,,,,,,5eadd6d03dcdd00d2aea4c72,5fb5d86bb10d321df4d83ada,2020-11-18_20h50.28.028,Colour_Similarity_Experiment,2020.1.2,Win32,60,5fb5945709dec70f2d595766,,,,,,,,,,,,,,,,,,,,PF,,,,,,,,7,1.285575,,,,,,,,,,,,,,,,,,,,,,,,,,,,9,43,114,1,0,0,response1disk,4,-7,-8,1,0,0,rectangle,-7,-8,1,0,0,,4,"[155,64,177,202,85,236,29,21,18,248,222,187,291,79,223,173,307,57,102,272]",-7,-8,1,0,0,0,9,8,8,114,1,,,,,,,,,,,,,,,,,,,,,
,,,,,,,,,,,,,,,,,,,,,,,,,,,,,,,,,,,,,,,,,,,5eadd6d03dcdd00d2aea4c72,5fb5d86bb10d321df4d83ada,2020-11-18_20h50.28.028,Colour_Similarity_Experiment,2020.1.2,Win32,60,5fb5945709dec70f2d595766,,,,,,,,,,,,,,,,,,,,FF,,,,,,,,2,1.66315,,,,,,,,,,,,,,,,,,,,,,,,,,,,8,-111,-50,1,0,0,response5disk,3,-4,-9,1,0,0,rectangle,-4,-9,1,0,0,,0,"[155,64,177,202,85,236,29,21,18,248,222,187,291,79,223,173,307,57,102,272]",-4,-9,1,0,0,0,10,9,9,154,1,,,,,,,,,,,,,,,,,,,,,
,,,,,,,,,,,,,,,,,,,,,,,,,,,,,,,,,,,,,,,,,,,5eadd6d03dcdd00d2aea4c72,5fb5d86bb10d321df4d83ada,2020-11-18_20h50.28.028,Colour_Similarity_Experiment,2020.1.2,Win32,60,5fb5945709dec70f2d595766,,,,,,,,,,,,,,,,,,,,PF,,,,,,,,5,1.156485,,,,,,,,,,,,,,,,,,,,,,,,,,,,9,102,-41,1,0,0,response3disk,8,12,-16,1,0,0,rectangle,12,-16,1,0,0,,1,"[155,64,177,202,85,236,29,21,18,248,222,187,291,79,223,173,307,57,102,272]",12,-16,1,0,0,0,11,10,10,67,1,,,,,,,,,,,,,,,,,,,,,
,,,,,,,,,,,,,,,,,,,,,,,,,,,,,,,,,,,,,,,,,,,5eadd6d03dcdd00d2aea4c72,5fb5d86bb10d321df4d83ada,2020-11-18_20h50.28.028,Colour_Similarity_Experiment,2020.1.2,Win32,60,5fb5945709dec70f2d595766,,,,,,,,,,,,,,,,,,,,PF,,,,,,,,1,0.88433,,,,,,,,,,,,,,,,,,,,,,,,,,,,8,-98,40,1,0,0,response7disk,1,-2,-2,1,0,0,rectangle,-2,-2,1,0,0,,6,"[155,64,177,202,85,236,29,21,18,248,222,187,291,79,223,173,307,57,102,272]",-2,-2,1,0,0,0,12,11,11,57,1,,,,,,,,,,,,,,,,,,,,,
,,,,,,,,,,,,,,,,,,,,,,,,,,,,,,,,,,,,,,,,,,,5eadd6d03dcdd00d2aea4c72,5fb5d86bb10d321df4d83ada,2020-11-18_20h50.28.028,Colour_Similarity_Experiment,2020.1.2,Win32,60,5fb5945709dec70f2d595766,,,,,,,,,,,,,,,,,,,,FF,,,,,,,,7,1.25557,,,,,,,,,,,,,,,,,,,,,,,,,,,,7,58,105,1,0,0,response1disk,4,6,8,1,0,0,rectangle,6,8,1,0,0,,3,"[155,64,177,202,85,236,29,21,18,248,222,187,291,79,223,173,307,57,102,272]",6,8,1,0,0,0,13,12,12,158,1,,,,,,,,,,,,,,,,,,,,,
,,,,,,,,,,,,,,,,,,,,,,,,,,,,,,,,,,,,,,,,,,,5eadd6d03dcdd00d2aea4c72,5fb5d86bb10d321df4d83ada,2020-11-18_20h50.28.028,Colour_Similarity_Experiment,2020.1.2,Win32,60,5fb5945709dec70f2d595766,,,,,,,,,,,,,,,,,,,,PF,,,,,,,,7,0.59016,,,,,,,,,,,,,,,,,,,,,,,,,,,,5,36,91,1,0,0,response1disk,7,3,1,1,0,0,rectangle,3,1,1,0,0,,6,"[155,64,177,202,85,236,29,21,18,248,222,187,291,79,223,173,307,57,102,272]",3,1,1,0,0,0,14,13,13,146,1,,,,,,,,,,,,,,,,,,,,,
,,,,,,,,,,,,,,,,,,,,,,,,,,,,,,,,,,,,,,,,,,,5eadd6d03dcdd00d2aea4c72,5fb5d86bb10d321df4d83ada,2020-11-18_20h50.28.028,Colour_Similarity_Experiment,2020.1.2,Win32,60,5fb5945709dec70f2d595766,,,,,,,,,,,,,,,,,,,,FF,,,,,,,,6,1.36651,,,,,,,,,,,,,,,,,,,,,,,,,,,,4,129,40,1,0,0,response1disk,3,-2,-2,1,0,0,rectangle,-2,-2,1,0,0,,6,"[155,64,177,202,85,236,29,21,18,248,222,187,291,79,223,173,307,57,102,272]",-2,-2,1,0,0,0,15,14,14,77,1,,,,,,,,,,,,,,,,,,,,,
,,,,,,,,,,,,,,,,,,,,,,,,,,,,,,,,,,,,,,,,,,,5eadd6d03dcdd00d2aea4c72,5fb5d86bb10d321df4d83ada,2020-11-18_20h50.28.028,Colour_Similarity_Experiment,2020.1.2,Win32,60,5fb5945709dec70f2d595766,,,,,,,,,,,,,,,,,,,,FF,,,,,,,,2,1.961085,,,,,,,,,,,,,,,,,,,,,,,,,,,,6,-112,-54,1,0,0,response5disk,7,-11,-2,1,0,0,rectangle,-11,-2,1,0,0,,3,"[155,64,177,202,85,236,29,21,18,248,222,187,291,79,223,173,307,57,102,272]",-11,-2,1,0,0,0,16,15,15,18,1,,,,,,,,,,,,,,,,,,,,,
,,,,,,,,,,,,,,,,,,,,,,,,,,,,,,,,,,,,,,,,,,,5eadd6d03dcdd00d2aea4c72,5fb5d86bb10d321df4d83ada,2020-11-18_20h50.28.028,Colour_Similarity_Experiment,2020.1.2,Win32,60,5fb5945709dec70f2d595766,,,,,,,,,,,,,,,,,,,,FF,,,,,,,,2,0.965215,,,,,,,,,,,,,,,,,,,,,,,,,,,,2,-94,-56,1,0,0,response5disk,9,3,-13,1,0,0,rectangle,3,-13,1,0,0,,7,"[155,64,177,202,85,236,29,21,18,248,222,187,291,79,223,173,307,57,102,272]",3,-13,1,0,0,0,17,16,16,72,1,,,,,,,,,,,,,,,,,,,,,
,,,,,,,,,,,,,,,,,,,,,,,,,,,,,,,,,,,,,,,,,,,5eadd6d03dcdd00d2aea4c72,5fb5d86bb10d321df4d83ada,2020-11-18_20h50.28.028,Colour_Similarity_Experiment,2020.1.2,Win32,60,5fb5945709dec70f2d595766,,,,,,,,,,,,,,,,,,,,PF,,,,,,,,5,0.67529,,,,,,,,,,,,,,,,,,,,,,,,,,,,7,95,-27,1,0,0,response3disk,6,15,-8,1,0,0,rectangle,118,-51,1,0,0,5,5,"[155,64,177,202,85,236,29,21,18,248,222,187,291,79,223,173,307,57,102,272]",-18,2,1,0,0,0,18,17,17,29,1,response3disk_3,rectangle,,,,,,,,,,,,,,,,,,,
,,,,,,,,,,,,,,,,,,,,,,,,,,,,,,,,,,,,,,,,,,,5eadd6d03dcdd00d2aea4c72,5fb5d86bb10d321df4d83ada,2020-11-18_20h50.28.028,Colour_Similarity_Experiment,2020.1.2,Win32,60,5fb5945709dec70f2d595766,,,,,,,,,,,,,,,,,,,,PF,,,,,,,,1,0.688465,,,,,,,,,,,,,,,,,,,,,,,,,,,,8,-112,63,1,0,0,response7disk,2,-7,3,1,0,0,rectangle,-7,3,1,0,0,5,5,"[155,64,177,202,85,236,29,21,18,248,222,187,291,79,223,173,307,57,102,272]",-7,3,1,0,0,0,19,18,18,83,1,,,,,,,,,,,,,,,,,,,,,
,,,,,,,,,,,,,,,,,,,,,,,,,,,,,,,,,,,,,,,,,,,5eadd6d03dcdd00d2aea4c72,5fb5d86bb10d321df4d83ada,2020-11-18_20h50.28.028,Colour_Similarity_Experiment,2020.1.2,Win32,60,5fb5945709dec70f2d595766,,,,,,,,,,,,,,,,,,,,PF,,,,,,,,3,1.05967,,,,,,,,,,,,,,,,,,,,,,,,,,,,1,-58,-115,1,0,0,response5disk,7,3,-12,1,0,0,rectangle,3,-12,1,0,0,5,4,"[155,64,177,202,85,236,29,21,18,248,222,187,291,79,223,173,307,57,102,272]",3,-12,1,0,0,0,20,19,19,150,1,,,,,,,,,,,,,,,,,,,,,
,,,,,,,,,,,,,,,,,,,,,,,,,,,,,,,,,,,,,,,,,,,5eadd6d03dcdd00d2aea4c72,5fb5d86bb10d321df4d83ada,2020-11-18_20h50.28.028,Colour_Similarity_Experiment,2020.1.2,Win32,60,5fb5945709dec70f2d595766,,,,,,,,,,,,,,,,,,,,FF,,,,,,,,4,0.978515,,,,,,,,,,,,,,,,,,,,,,,,,,,,3,57,-122,1,0,0,response3disk,3,20,-7,1,0,0,rectangle,-37,-115,1,0,0,3,3,"[155,64,177,202,85,236,29,21,18,248,222,187,291,79,223,173,307,57,102,272]",-3,-5,1,0,0,0,21,20,20,68,1,response5disk_3,rectangle,,,,,,,,,,,,,,,,,,,
,,,,,,,,,,,,,,,,,,,,,,,,,,,,,,,,,,,,,,,,,,,5eadd6d03dcdd00d2aea4c72,5fb5d86bb10d321df4d83ada,2020-11-18_20h50.28.028,Colour_Similarity_Experiment,2020.1.2,Win32,60,5fb5945709dec70f2d595766,,,,,,,,,,,,,,,,,,,,FF,,,,,,,,1,0.676395,,,,,,,,,,,,,,,,,,,,,,,,,,,,6,-85,32,1,0,0,response7disk,6,-24,-6,1,0,0,rectangle,-24,-6,1,0,0,3,6,"[155,64,177,202,85,236,29,21,18,248,222,187,291,79,223,173,307,57,102,272]",-24,-6,1,0,0,0,22,21,21,91,1,,,,,,,,,,,,,,,,,,,,,
,,,,,,,,,,,,,,,,,,,,,,,,,,,,,,,,,,,,,,,,,,,5eadd6d03dcdd00d2aea4c72,5fb5d86bb10d321df4d83ada,2020-11-18_20h50.28.028,Colour_Similarity_Experiment,2020.1.2,Win32,60,5fb5945709dec70f2d595766,,,,,,,,,,,,,,,,,,,,FF,,,,,,,,2,0.78173,,,,,,,,,,,,,,,,,,,,,,,,,,,,9,-131,-74,1,0,0,response5disk,1,-2,-11,1,0,0,rectangle,-2,-11,1,0,0,3,2,"[155,64,177,202,85,236,29,21,18,248,222,187,291,79,223,173,307,57,102,272]",-2,-11,1,0,0,0,23,22,22,111,1,,,,,,,,,,,,,,,,,,,,,
,,,,,,,,,,,,,,,,,,,,,,,,,,,,,,,,,,,,,,,,,,,5eadd6d03dcdd00d2aea4c72,5fb5d86bb10d321df4d83ada,2020-11-18_20h50.28.028,Colour_Similarity_Experiment,2020.1.2,Win32,60,5fb5945709dec70f2d595766,,,,,,,,,,,,,,,,,,,,FF,,,,,,,,3,2.521575,,,,,,,,,,,,,,,,,,,,,,,,,,,,5,-60,-120,1,0,0,response5disk,6,-12,-4,1,0,0,rectangle,-12,-4,1,0,0,3,7,"[155,64,177,202,85,236,29,21,18,248,222,187,291,79,223,173,307,57,102,272]",-12,-4,1,0,0,0,24,23,23,12,1,,,,,,,,,,,,,,,,,,,,,
,,,,,,,,,,,,,,,,,,,,,,,,,,,,,,,,,,,,,,,,,,,5eadd6d03dcdd00d2aea4c72,5fb5d86bb10d321df4d83ada,2020-11-18_20h50.28.028,Colour_Similarity_Experiment,2020.1.2,Win32,60,5fb5945709dec70f2d595766,,,,,,,,,,,,,,,,,,,,FF,,,,,,,,2,0.780565,,,,,,,,,,,,,,,,,,,,,,,,,,,,5,-106,-70,1,0,0,response5disk,8,13,-11,1,0,0,rectangle,13,-11,1,0,0,3,5,"[155,64,177,202,85,236,29,21,18,248,222,187,291,79,223,173,307,57,102,272]",13,-11,1,0,0,0,25,24,24,16,1,,,,,,,,,,,,,,,,,,,,,
,,,,,,,,,,,,,,,,,,,,,,,,,,,,,,,,,,,,,,,,,,,5eadd6d03dcdd00d2aea4c72,5fb5d86bb10d321df4d83ada,2020-11-18_20h50.28.028,Colour_Similarity_Experiment,2020.1.2,Win32,60,5fb5945709dec70f2d595766,,,,,,,,,,,,,,,,,,,,PF,,,,,,,,6,0.500785,,,,,,,,,,,,,,,,,,,,,,,,,,,,9,68,36,1,0,0,response1disk,5,2,-13,1,0,0,rectangle,2,-13,1,0,0,3,5,"[155,64,177,202,85,236,29,21,18,248,222,187,291,79,223,173,307,57,102,272]",2,-13,1,0,0,0,26,25,25,134,1,,,,,,,,,,,,,,,,,,,,,
,,,,,,,,,,,,,,,,,,,,,,,,,,,,,,,,,,,,,,,,,,,5eadd6d03dcdd00d2aea4c72,5fb5d86bb10d321df4d83ada,2020-11-18_20h50.28.028,Colour_Similarity_Experiment,2020.1.2,Win32,60,5fb5945709dec70f2d595766,,,,,,,,,,,,,,,,,,,,FF,,,,,,,,4,0.473915,,,,,,,,,,,,,,,,,,,,,,,,,,,,6,51,-105,1,0,0,response3disk,8,9,-8,1,0,0,rectangle,9,-8,1,0,0,3,5,"[155,64,177,202,85,236,29,21,18,248,222,187,291,79,223,173,307,57,102,272]",9,-8,1,0,0,0,27,26,26,133,1,,,,,,,,,,,,,,,,,,,,,
,,,,,,,,,,,,,,,,,,,,,,,,,,,,,,,,,,,,,,,,,,,5eadd6d03dcdd00d2aea4c72,5fb5d86bb10d321df4d83ada,2020-11-18_20h50.28.028,Colour_Similarity_Experiment,2020.1.2,Win32,60,5fb5945709dec70f2d595766,,,,,,,,,,,,,,,,,,,,FF,,,,,,,,2,0.868825,,,,,,,,,,,,,,,,,,,,,,,,,,,,4,-108,-49,1,0,0,response5disk,1,3,0,1,0,0,rectangle,3,0,1,0,0,3,5,"[155,64,177,202,85,236,29,21,18,248,222,187,291,79,223,173,307,57,102,272]",3,0,1,0,0,0,28,27,27,102,1,,,,,,,,,,,,,,,,,,,,,
,,,,,,,,,,,,,,,,,,,,,,,,,,,,,,,,,,,,,,,,,,,5eadd6d03dcdd00d2aea4c72,5fb5d86bb10d321df4d83ada,2020-11-18_20h50.28.028,Colour_Similarity_Experiment,2020.1.2,Win32,60,5fb5945709dec70f2d595766,,,,,,,,,,,,,,,,,,,,PF,,,,,,,,6,0.397655,,,,,,,,,,,,,,,,,,,,,,,,,,,,6,91,40,1,0,0,response1disk,6,12,2,1,0,0,rectangle,-111,-51,1,0,0,3,2,"[155,64,177,202,85,236,29,21,18,248,222,187,291,79,223,173,307,57,102,272]",-12,-5,1,0,0,0,29,28,28,0,1,response5disk_3,rectangle,,,,,,,,,,,,,,,,,,,
,,,,,,,,,,,,,,,,,,,,,,,,,,,,,,,,,,,,,,,,,,,5eadd6d03dcdd00d2aea4c72,5fb5d86bb10d321df4d83ada,2020-11-18_20h50.28.028,Colour_Similarity_Experiment,2020.1.2,Win32,60,5fb5945709dec70f2d595766,,,,,,,,,,,,,,,,,,,,FF,,,,,,,,2,0.67228,,,,,,,,,,,,,,,,,,,,,,,,,,,,8,-122,-49,1,0,0,response5disk,4,26,-9,1,0,0,rectangle,26,-9,1,0,0,3,6,"[155,64,177,202,85,236,29,21,18,248,222,187,291,79,223,173,307,57,102,272]",26,-9,1,0,0,0,30,29,29,88,1,,,,,,,,,,,,,,,,,,,,,
,,,,,,,,,,,,,,,,,,,,,,,,,,,,,,,,,,,,,,,,,,,5eadd6d03dcdd00d2aea4c72,5fb5d86bb10d321df4d83ada,2020-11-18_20h50.28.028,Colour_Similarity_Experiment,2020.1.2,Win32,60,5fb5945709dec70f2d595766,,,,,,,,,,,,,,,,,,,,PF,,,,,,,,6,0.47318,,,,,,,,,,,,,,,,,,,,,,,,,,,,5,100,31,1,0,0,response1disk,6,-4,2,1,0,0,rectangle,-4,2,1,0,0,3,5,"[155,64,177,202,85,236,29,21,18,248,222,187,291,79,223,173,307,57,102,272]",-4,2,1,0,0,0,31,30,30,103,1,,,,,,,,,,,,,,,,,,,,,
,,,,,,,,,,,,,,,,,,,,,,,,,,,,,,,,,,,,,,,,,,,5eadd6d03dcdd00d2aea4c72,5fb5d86bb10d321df4d83ada,2020-11-18_20h50.28.028,Colour_Similarity_Experiment,2020.1.2,Win32,60,5fb5945709dec70f2d595766,,,,,,,,,,,,,,,,,,,,FF,,,,,,,,4,1.647335,,,,,,,,,,,,,,,,,,,,,,,,,,,,9,40,-110,1,0,0,response3disk,9,4,-12,1,0,0,rectangle,4,-12,1,0,0,3,1,"[155,64,177,202,85,236,29,21,18,248,222,187,291,79,223,173,307,57,102,272]",4,-12,1,0,0,0,32,31,31,17,1,,,,,,,,,,,,,,,,,,,,,
,,,,,,,,,,,,,,,,,,,,,,,,,,,,,,,,,,,,,,,,,,,5eadd6d03dcdd00d2aea4c72,5fb5d86bb10d321df4d83ada,2020-11-18_20h50.28.028,Colour_Similarity_Experiment,2020.1.2,Win32,60,5fb5945709dec70f2d595766,,,,,,,,,,,,,,,,,,,,PF,,,,,,,,1,0.905125,,,,,,,,,,,,,,,,,,,,,,,,,,,,1,-138,51,1,0,0,response7disk,9,-4,2,1,0,0,rectangle,-4,2,1,0,0,3,5,"[155,64,177,202,85,236,29,21,18,248,222,187,291,79,223,173,307,57,102,272]",-4,2,1,0,0,0,33,32,32,15,1,,,,,,,,,,,,,,,,,,,,,
,,,,,,,,,,,,,,,,,,,,,,,,,,,,,,,,,,,,,,,,,,,5eadd6d03dcdd00d2aea4c72,5fb5d86bb10d321df4d83ada,2020-11-18_20h50.28.028,Colour_Similarity_Experiment,2020.1.2,Win32,60,5fb5945709dec70f2d595766,,,,,,,,,,,,,,,,,,,,FF,,,,,,,,5,0.551485,,,,,,,,,,,,,,,,,,,,,,,,,,,,6,111,-53,1,0,0,response3disk,5,2,-13,1,0,0,rectangle,2,-13,1,0,0,3,7,"[155,64,177,202,85,236,29,21,18,248,222,187,291,79,223,173,307,57,102,272]",2,-13,1,0,0,0,34,33,33,126,1,,,,,,,,,,,,,,,,,,,,,
,,,,,,,,,,,,,,,,,,,,,,,,,,,,,,,,,,,,,,,,,,,5eadd6d03dcdd00d2aea4c72,5fb5d86bb10d321df4d83ada,2020-11-18_20h50.28.028,Colour_Similarity_Experiment,2020.1.2,Win32,60,5fb5945709dec70f2d595766,,,,,,,,,,,,,,,,,,,,PF,,,,,,,,2,0.63539,,,,,,,,,,,,,,,,,,,,,,,,,,,,3,-97,-56,1,0,0,response5disk,6,-15,-18,1,0,0,rectangle,-15,-18,1,0,0,3,6,"[155,64,177,202,85,236,29,21,18,248,222,187,291,79,223,173,307,57,102,272]",-15,-18,1,0,0,0,35,34,34,47,1,,,,,,,,,,,,,,,,,,,,,
,,,,,,,,,,,,,,,,,,,,,,,,,,,,,,,,,,,,,,,,,,,5eadd6d03dcdd00d2aea4c72,5fb5d86bb10d321df4d83ada,2020-11-18_20h50.28.028,Colour_Similarity_Experiment,2020.1.2,Win32,60,5fb5945709dec70f2d595766,,,,,,,,,,,,,,,,,,,,FF,,,,,,,,2,0.41529,,,,,,,,,,,,,,,,,,,,,,,,,,,,8,-91,-52,1,0,0,response5disk,7,5,-8,1,0,0,rectangle,5,-8,1,0,0,3,7,"[155,64,177,202,85,236,29,21,18,248,222,187,291,79,223,173,307,57,102,272]",5,-8,1,0,0,0,36,35,35,86,1,,,,,,,,,,,,,,,,,,,,,
,,,,,,,,,,,,,,,,,,,,,,,,,,,,,,,,,,,,,,,,,,,5eadd6d03dcdd00d2aea4c72,5fb5d86bb10d321df4d83ada,2020-11-18_20h50.28.028,Colour_Similarity_Experiment,2020.1.2,Win32,60,5fb5945709dec70f2d595766,,,,,,,,,,,,,,,,,,,,FF,,,,,,,,3,1.561225,,,,,,,,,,,,,,,,,,,,,,,,,,,,1,-42,-139,1,0,0,response5disk,3,6,-6,1,0,0,rectangle,6,-6,1,0,0,3,6,"[155,64,177,202,85,236,29,21,18,248,222,187,291,79,223,173,307,57,102,272]",6,-6,1,0,0,0,37,36,36,99,1,,,,,,,,,,,,,,,,,,,,,
,,,,,,,,,,,,,,,,,,,,,,,,,,,,,,,,,,,,,,,,,,,5eadd6d03dcdd00d2aea4c72,5fb5d86bb10d321df4d83ada,2020-11-18_20h50.28.028,Colour_Similarity_Experiment,2020.1.2,Win32,60,5fb5945709dec70f2d595766,,,,,,,,,,,,,,,,,,,,PF,,,,,,,,4,0.71914,,,,,,,,,,,,,,,,,,,,,,,,,,,,6,37,-124,1,0,0,response3disk,8,7,-12,1,0,0,rectangle,7,-12,1,0,0,3,2,"[155,64,177,202,85,236,29,21,18,248,222,187,291,79,223,173,307,57,102,272]",7,-12,1,0,0,0,38,37,37,64,1,,,,,,,,,,,,,,,,,,,,,
,,,,,,,,,,,,,,,,,,,,,,,,,,,,,,,,,,,,,,,,,,,5eadd6d03dcdd00d2aea4c72,5fb5d86bb10d321df4d83ada,2020-11-18_20h50.28.028,Colour_Similarity_Experiment,2020.1.2,Win32,60,5fb5945709dec70f2d595766,,,,,,,,,,,,,,,,,,,,PF,,,,,,,,3,3.055315,,,,,,,,,,,,,,,,,,,,,,,,,,,,7,-49,-137,1,0,0,response5disk,2,-3,-6,1,0,0,rectangle,-3,-6,1,0,0,3,0,"[155,64,177,202,85,236,29,21,18,248,222,187,291,79,223,173,307,57,102,272]",-3,-6,1,0,0,0,39,38,38,32,1,,,,,,,,,,,,,,,,,,,,,
,,,,,,,,,,,,,,,,,,,,,,,,,,,,,,,,,,,,,,,,,,,5eadd6d03dcdd00d2aea4c72,5fb5d86bb10d321df4d83ada,2020-11-18_20h50.28.028,Colour_Similarity_Experiment,2020.1.2,Win32,60,5fb5945709dec70f2d595766,,,,,,,,,,,,,,,,,,,,FF,,,,,,,,4,2.12076,,,,,,,,,,,,,,,,,,,,,,,,,,,,2,52,-130,1,0,0,response3disk,8,-5,0,1,0,0,rectangle,-5,0,1,0,0,3,1,"[155,64,177,202,85,236,29,21,18,248,222,187,291,79,223,173,307,57,102,272]",-5,0,1,0,0,0,40,39,39,62,1,,,,,,,,,,,,,,,,,,,,,
,,,,,,,,,,,,,,,,,,,,,,,,,,,,,,,,,,,,,,,,,,,5eadd6d03dcdd00d2aea4c72,5fb5d86bb10d321df4d83ada,2020-11-18_20h50.28.028,Colour_Similarity_Experiment,2020.1.2,Win32,60,5fb5945709dec70f2d595766,,,,,,,,,,,,,,,,,,,,PF,,,,,,,,3,0.894415,,,,,,,,,,,,,,,,,,,,,,,,,,,,5,-57,-147,1,0,0,response5disk,5,-10,-10,1,0,0,rectangle,-10,-10,1,0,0,3,5,"[155,64,177,202,85,236,29,21,18,248,222,187,291,79,223,173,307,57,102,272]",-10,-10,1,0,0,0,41,40,40,94,1,,,,,,,,,,,,,,,,,,,,,
,,,,,,,,,,,,,,,,,,,,,,,,,,,,,,,,,,,,,,,,,,,5eadd6d03dcdd00d2aea4c72,5fb5d86bb10d321df4d83ada,2020-11-18_20h50.28.028,Colour_Similarity_Experiment,2020.1.2,Win32,60,5fb5945709dec70f2d595766,,,,,,,,,,,,,,,,,,,,PF,,,,,,,,1,0.907975,,,,,,,,,,,,,,,,,,,,,,,,,,,,1,-106,38,1,0,0,response7disk,4,8,-14,1,0,0,rectangle,8,-14,1,0,0,3,4,"[155,64,177,202,85,236,29,21,18,248,222,187,291,79,223,173,307,57,102,272]",8,-14,1,0,0,0,42,41,41,139,1,,,,,,,,,,,,,,,,,,,,,
,,,,,,,,,,,,,,,,,,,,,,,,,,,,,,,,,,,,,,,,,,,5eadd6d03dcdd00d2aea4c72,5fb5d86bb10d321df4d83ada,2020-11-18_20h50.28.028,Colour_Similarity_Experiment,2020.1.2,Win32,60,5fb5945709dec70f2d595766,,,,,,,,,,,,,,,,,,,,FF,,,,,,,,6,0.719825,,,,,,,,,,,,,,,,,,,,,,,,,,,,4,103,39,1,0,0,response1disk,8,36,-5,1,0,0,rectangle,36,-5,1,0,0,3,2,"[155,64,177,202,85,236,29,21,18,248,222,187,291,79,223,173,307,57,102,272]",36,-5,1,0,0,0,43,42,42,35,1,,,,,,,,,,,,,,,,,,,,,
,,,,,,,,,,,,,,,,,,,,,,,,,,,,,,,,,,,,,,,,,,,5eadd6d03dcdd00d2aea4c72,5fb5d86bb10d321df4d83ada,2020-11-18_20h50.28.028,Colour_Similarity_Experiment,2020.1.2,Win32,60,5fb5945709dec70f2d595766,,,,,,,,,,,,,,,,,,,,PF,,,,,,,,6,0.49884,,,,,,,,,,,,,,,,,,,,,,,,,,,,5,124,60,1,0,0,response1disk,9,19,-2,1,0,0,rectangle,19,-2,1,0,0,3,5,"[155,64,177,202,85,236,29,21,18,248,222,187,291,79,223,173,307,57,102,272]",19,-2,1,0,0,0,44,43,43,136,1,,,,,,,,,,,,,,,,,,,,,
,,,,,,,,,,,,,,,,,,,,,,,,,,,,,,,,,,,,,,,,,,,5eadd6d03dcdd00d2aea4c72,5fb5d86bb10d321df4d83ada,2020-11-18_20h50.28.028,Colour_Similarity_Experiment,2020.1.2,Win32,60,5fb5945709dec70f2d595766,,,,,,,,,,,,,,,,,,,,PF,,,,,,,,3,0.98717,,,,,,,,,,,,,,,,,,,,,,,,,,,,8,-52,-123,1,0,0,response5disk,5,17,5,1,0,0,rectangle,17,5,1,0,0,3,2,"[155,64,177,202,85,236,29,21,18,248,222,187,291,79,223,173,307,57,102,272]",17,5,1,0,0,0,45,44,44,98,1,,,,,,,,,,,,,,,,,,,,,
,,,,,,,,,,,,,,,,,,,,,,,,,,,,,,,,,,,,,,,,,,,5eadd6d03dcdd00d2aea4c72,5fb5d86bb10d321df4d83ada,2020-11-18_20h50.28.028,Colour_Similarity_Experiment,2020.1.2,Win32,60,5fb5945709dec70f2d595766,,,,,,,,,,,,,,,,,,,,PF,,,,,,,,1,0.7198,,,,,,,,,,,,,,,,,,,,,,,,,,,,5,-116,45,1,0,0,response7disk,1,-14,-15,1,0,0,rectangle,-14,-15,1,0,0,3,1,"[155,64,177,202,85,236,29,21,18,248,222,187,291,79,223,173,307,57,102,272]",-14,-15,1,0,0,0,46,45,45,159,1,,,,,,,,,,,,,,,,,,,,,
,,,,,,,,,,,,,,,,,,,,,,,,,,,,,,,,,,,,,,,,,,,5eadd6d03dcdd00d2aea4c72,5fb5d86bb10d321df4d83ada,2020-11-18_20h50.28.028,Colour_Similarity_Experiment,2020.1.2,Win32,60,5fb5945709dec70f2d595766,,,,,,,,,,,,,,,,,,,,PF,,,,,,,,1,0.37438,,,,,,,,,,,,,,,,,,,,,,,,,,,,2,-135,46,1,0,0,response7disk,8,16,3,1,0,0,rectangle,16,3,1,0,0,3,2,"[155,64,177,202,85,236,29,21,18,248,222,187,291,79,223,173,307,57,102,272]",16,3,1,0,0,0,47,46,46,52,1,,,,,,,,,,,,,,,,,,,,,
,,,,,,,,,,,,,,,,,,,,,,,,,,,,,,,,,,,,,,,,,,,5eadd6d03dcdd00d2aea4c72,5fb5d86bb10d321df4d83ada,2020-11-18_20h50.28.028,Colour_Similarity_Experiment,2020.1.2,Win32,60,5fb5945709dec70f2d595766,,,,,,,,,,,,,,,,,,,,FF,,,,,,,,6,0.440755,,,,,,,,,,,,,,,,,,,,,,,,,,,,1,76,43,1,0,0,response1disk,7,30,8,1,0,0,rectangle,30,8,1,0,0,3,5,"[155,64,177,202,85,236,29,21,18,248,222,187,291,79,223,173,307,57,102,272]",30,8,1,0,0,0,48,47,47,137,1,,,,,,,,,,,,,,,,,,,,,
,,,,,,,,,,,,,,,,,,,,,,,,,,,,,,,,,,,,,,,,,,,5eadd6d03dcdd00d2aea4c72,5fb5d86bb10d321df4d83ada,2020-11-18_20h50.28.028,Colour_Similarity_Experiment,2020.1.2,Win32,60,5fb5945709dec70f2d595766,,,,,,,,,,,,,,,,,,,,FF,,,,,,,,1,0.745675,,,,,,,,,,,,,,,,,,,,,,,,,,,,2,-104,47,1,0,0,response7disk,5,-10,1,1,0,0,rectangle,-10,1,1,0,0,3,4,"[155,64,177,202,85,236,29,21,18,248,222,187,291,79,223,173,307,57,102,272]",-10,1,1,0,0,0,49,48,48,80,1,,,,,,,,,,,,,,,,,,,,,
,,,,,,,,,,,,,,,,,,,,,,,,,,,,,,,,,,,,,,,,,,,5eadd6d03dcdd00d2aea4c72,5fb5d86bb10d321df4d83ada,2020-11-18_20h50.28.028,Colour_Similarity_Experiment,2020.1.2,Win32,60,5fb5945709dec70f2d595766,,,,,,,,,,,,,,,,,,,,FF,,,,,,,,2,0.426725,,,,,,,,,,,,,,,,,,,,,,,,,,,,5,-116,-60,1,0,0,response5disk,2,20,-10,1,0,0,rectangle,20,-10,1,0,0,3,0,"[155,64,177,202,85,236,29,21,18,248,222,187,291,79,223,173,307,57,102,272]",20,-10,1,0,0,0,50,49,49,55,1,,,,,,,,,,,,,,,,,,,,,
,,,,,,,,,,,,,,,,,,,,,,,,,,,,,,,,,,,,,,,,,,,5eadd6d03dcdd00d2aea4c72,5fb5d86bb10d321df4d83ada,2020-11-18_20h50.28.028,Colour_Similarity_Experiment,2020.1.2,Win32,60,5fb5945709dec70f2d595766,,,,,,,,,,,,,,,,,,,,FF,,,,,,,,2,0.374445,,,,,,,,,,,,,,,,,,,,,,,,,,,,6,-133,-59,1,0,0,response5disk,3,11,-18,1,0,0,rectangle,11,-18,1,0,0,3,6,"[155,64,177,202,85,236,29,21,18,248,222,187,291,79,223,173,307,57,102,272]",11,-18,1,0,0,0,51,50,50,21,1,,,,,,,,,,,,,,,,,,,,,
,,,,,,,,,,,,,,,,,,,,,,,,,,,,,,,,,,,,,,,,,,,5eadd6d03dcdd00d2aea4c72,5fb5d86bb10d321df4d83ada,2020-11-18_20h50.28.028,Colour_Similarity_Experiment,2020.1.2,Win32,60,5fb5945709dec70f2d595766,,,,,,,,,,,,,,,,,,,,PF,,,,,,,,6,0.452905,,,,,,,,,,,,,,,,,,,,,,,,,,,,4,96,46,1,0,0,response1disk,1,8,-3,1,0,0,rectangle,8,-3,1,0,0,3,5,"[155,64,177,202,85,236,29,21,18,248,222,187,291,79,223,173,307,57,102,272]",8,-3,1,0,0,0,52,51,51,115,1,,,,,,,,,,,,,,,,,,,,,
,,,,,,,,,,,,,,,,,,,,,,,,,,,,,,,,,,,,,,,,,,,5eadd6d03dcdd00d2aea4c72,5fb5d86bb10d321df4d83ada,2020-11-18_20h50.28.028,Colour_Similarity_Experiment,2020.1.2,Win32,60,5fb5945709dec70f2d595766,,,,,,,,,,,,,,,,,,,,PF,,,,,,,,5,0.968315,,,,,,,,,,,,,,,,,,,,,,,,,,,,6,102,-37,1,0,0,response3disk,5,-3,4,1,0,0,rectangle,-3,4,1,0,0,3,2,"[155,64,177,202,85,236,29,21,18,248,222,187,291,79,223,173,307,57,102,272]",-3,4,1,0,0,0,53,52,52,59,1,,,,,,,,,,,,,,,,,,,,,
,,,,,,,,,,,,,,,,,,,,,,,,,,,,,,,,,,,,,,,,,,,5eadd6d03dcdd00d2aea4c72,5fb5d86bb10d321df4d83ada,2020-11-18_20h50.28.028,Colour_Similarity_Experiment,2020.1.2,Win32,60,5fb5945709dec70f2d595766,,,,,,,,,,,,,,,,,,,,PF,,,,,,,,5,0.5713,,,,,,,,,,,,,,,,,,,,,,,,,,,,3,123,-49,1,0,0,response3disk,5,-14,1,1,0,0,rectangle,-14,1,1,0,0,3,4,"[155,64,177,202,85,236,29,21,18,248,222,187,291,79,223,173,307,57,102,272]",-14,1,1,0,0,0,54,53,53,66,1,,,,,,,,,,,,,,,,,,,,,
,,,,,,,,,,,,,,,,,,,,,,,,,,,,,,,,,,,,,,,,,,,5eadd6d03dcdd00d2aea4c72,5fb5d86bb10d321df4d83ada,2020-11-18_20h50.28.028,Colour_Similarity_Experiment,2020.1.2,Win32,60,5fb5945709dec70f2d595766,,,,,,,,,,,,,,,,,,,,FF,,,,,,,,4,1.32052,,,,,,,,,,,,,,,,,,,,,,,,,,,,8,61,-123,1,0,0,response3disk,9,14,-11,1,0,0,rectangle,14,-11,1,0,0,3,5,"[155,64,177,202,85,236,29,21,18,248,222,187,291,79,223,173,307,57,102,272]",14,-11,1,0,0,0,55,54,54,105,1,,,,,,,,,,,,,,,,,,,,,
,,,,,,,,,,,,,,,,,,,,,,,,,,,,,,,,,,,,,,,,,,,5eadd6d03dcdd00d2aea4c72,5fb5d86bb10d321df4d83ada,2020-11-18_20h50.28.028,Colour_Similarity_Experiment,2020.1.2,Win32,60,5fb5945709dec70f2d595766,,,,,,,,,,,,,,,,,,,,FF,,,,,,,,2,1.482655,,,,,,,,,,,,,,,,,,,,,,,,,,,,5,-117,-58,1,0,0,response5disk,9,12,-20,1,0,0,rectangle,12,-20,1,0,0,3,7,"[155,64,177,202,85,236,29,21,18,248,222,187,291,79,223,173,307,57,102,272]",12,-20,1,0,0,0,56,55,55,61,1,,,,,,,,,,,,,,,,,,,,,
,,,,,,,,,,,,,,,,,,,,,,,,,,,,,,,,,,,,,,,,,,,5eadd6d03dcdd00d2aea4c72,5fb5d86bb10d321df4d83ada,2020-11-18_20h50.28.028,Colour_Similarity_Experiment,2020.1.2,Win32,60,5fb5945709dec70f2d595766,,,,,,,,,,,,,,,,,,,,FF,,,,,,,,2,0.28016,,,,,,,,,,,,,,,,,,,,,,,,,,,,1,-99,-58,1,0,0,response5disk,2,11,-13,1,0,0,rectangle,-119,48,1,0,0,1,1,"[155,64,177,202,85,236,29,21,18,248,222,187,291,79,223,173,307,57,102,272]",8,-8,1,0,0,0,57,56,56,2,1,response7disk_3,rectangle,,,,,,,,,,,,,,,,,,,
,,,,,,,,,,,,,,,,,,,,,,,,,,,,,,,,,,,,,,,,,,,5eadd6d03dcdd00d2aea4c72,5fb5d86bb10d321df4d83ada,2020-11-18_20h50.28.028,Colour_Similarity_Experiment,2020.1.2,Win32,60,5fb5945709dec70f2d595766,,,,,,,,,,,,,,,,,,,,PF,,,,,,,,2,0.372775,,,,,,,,,,,,,,,,,,,,,,,,,,,,3,-127,-56,1,0,0,response5disk,4,13,-13,1,0,0,rectangle,13,-13,1,0,0,1,0,"[155,64,177,202,85,236,29,21,18,248,222,187,291,79,223,173,307,57,102,272]",13,-13,1,0,0,0,58,57,57,30,1,,,,,,,,,,,,,,,,,,,,,
,,,,,,,,,,,,,,,,,,,,,,,,,,,,,,,,,,,,,,,,,,,5eadd6d03dcdd00d2aea4c72,5fb5d86bb10d321df4d83ada,2020-11-18_20h50.28.028,Colour_Similarity_Experiment,2020.1.2,Win32,60,5fb5945709dec70f2d595766,,,,,,,,,,,,,,,,,,,,PF,,,,,,,,3,0.721545,,,,,,,,,,,,,,,,,,,,,,,,,,,,6,-58,-137,1,0,0,response5disk,4,-2,-1,1,0,0,rectangle,-2,-1,1,0,0,1,5,"[155,64,177,202,85,236,29,21,18,248,222,187,291,79,223,173,307,57,102,272]",-2,-1,1,0,0,0,59,58,58,33,1,,,,,,,,,,,,,,,,,,,,,
,,,,,,,,,,,,,,,,,,,,,,,,,,,,,,,,,,,,,,,,,,,5eadd6d03dcdd00d2aea4c72,5fb5d86bb10d321df4d83ada,2020-11-18_20h50.28.028,Colour_Similarity_Experiment,2020.1.2,Win32,60,5fb5945709dec70f2d595766,,,,,,,,,,,,,,,,,,,,FF,,,,,,,,4,0.69314,,,,,,,,,,,,,,,,,,,,,,,,,,,,7,49,-129,1,0,0,response3disk,1,6,0,1,0,0,rectangle,6,0,1,0,0,1,7,"[155,64,177,202,85,236,29,21,18,248,222,187,291,79,223,173,307,57,102,272]",6,0,1,0,0,0,60,59,59,132,1,,,,,,,,,,,,,,,,,,,,,
,,,,,,,,,,,,,,,,,,,,,,,,,,,,,,,,,,,,,,,,,,,5eadd6d03dcdd00d2aea4c72,5fb5d86bb10d321df4d83ada,2020-11-18_20h50.28.028,Colour_Similarity_Experiment,2020.1.2,Win32,60,5fb5945709dec70f2d595766,,,,,,,,,,,,,,,,,,,,PF,,,,,,,,1,0.62689,,,,,,,,,,,,,,,,,,,,,,,,,,,,1,-120,33,1,0,0,response7disk,6,-2,-5,1,0,0,rectangle,-2,-5,1,0,0,1,2,"[155,64,177,202,85,236,29,21,18,248,222,187,291,79,223,173,307,57,102,272]",-2,-5,1,0,0,0,61,60,60,144,1,,,,,,,,,,,,,,,,,,,,,
,,,,,,,,,,,,,,,,,,,,,,,,,,,,,,,,,,,,,,,,,,,5eadd6d03dcdd00d2aea4c72,5fb5d86bb10d321df4d83ada,2020-11-18_20h50.28.028,Colour_Similarity_Experiment,2020.1.2,Win32,60,5fb5945709dec70f2d595766,,,,,,,,,,,,,,,,,,,,FF,,,,,,,,4,0.427215,,,,,,,,,,,,,,,,,,,,,,,,,,,,9,62,-144,1,0,0,response3disk,8,14,2,1,0,0,rectangle,14,2,1,0,0,1,4,"[155,64,177,202,85,236,29,21,18,248,222,187,291,79,223,173,307,57,102,272]",14,2,1,0,0,0,62,61,61,6,1,,,,,,,,,,,,,,,,,,,,,
,,,,,,,,,,,,,,,,,,,,,,,,,,,,,,,,,,,,,,,,,,,5eadd6d03dcdd00d2aea4c72,5fb5d86bb10d321df4d83ada,2020-11-18_20h50.28.028,Colour_Similarity_Experiment,2020.1.2,Win32,60,5fb5945709dec70f2d595766,,,,,,,,,,,,,,,,,,,,FF,,,,,,,,2,0.533345,,,,,,,,,,,,,,,,,,,,,,,,,,,,2,-106,-73,1,0,0,response5disk,2,9,9,1,0,0,rectangle,9,9,1,0,0,1,6,"[155,64,177,202,85,236,29,21,18,248,222,187,291,79,223,173,307,57,102,272]",9,9,1,0,0,0,63,62,62,142,1,,,,,,,,,,,,,,,,,,,,,
,,,,,,,,,,,,,,,,,,,,,,,,,,,,,,,,,,,,,,,,,,,5eadd6d03dcdd00d2aea4c72,5fb5d86bb10d321df4d83ada,2020-11-18_20h50.28.028,Colour_Similarity_Experiment,2020.1.2,Win32,60,5fb5945709dec70f2d595766,,,,,,,,,,,,,,,,,,,,FF,,,,,,,,2,2.054545,,,,,,,,,,,,,,,,,,,,,,,,,,,,5,-124,-50,1,0,0,response5disk,5,1,-5,1,0,0,rectangle,-115,-61,1,0,0,1,2,"[155,64,177,202,85,236,29,21,18,248,222,187,291,79,223,173,307,57,102,272]",0,-7,1,0,0,0,64,63,63,19,1,response5disk_3,rectangle,,,,,,,,,,,,,,,,,,,
,,,,,,,,,,,,,,,,,,,,,,,,,,,,,,,,,,,,,,,,,,,5eadd6d03dcdd00d2aea4c72,5fb5d86bb10d321df4d83ada,2020-11-18_20h50.28.028,Colour_Similarity_Experiment,2020.1.2,Win32,60,5fb5945709dec70f2d595766,,,,,,,,,,,,,,,,,,,,PF,,,,,,,,1,0.46867,,,,,,,,,,,,,,,,,,,,,,,,,,,,2,-100,32,1,0,0,response7disk,3,-4,-5,1,0,0,rectangle,-4,-5,1,0,0,1,3,"[155,64,177,202,85,236,29,21,18,248,222,187,291,79,223,173,307,57,102,272]",-4,-5,1,0,0,0,65,64,64,69,1,,,,,,,,,,,,,,,,,,,,,
,,,,,,,,,,,,,,,,,,,,,,,,,,,,,,,,,,,,,,,,,,,5eadd6d03dcdd00d2aea4c72,5fb5d86bb10d321df4d83ada,2020-11-18_20h50.28.028,Colour_Similarity_Experiment,2020.1.2,Win32,60,5fb5945709dec70f2d595766,,,,,,,,,,,,,,,,,,,,FF,,,,,,,,6,0.19989,,,,,,,,,,,,,,,,,,,,,,,,,,,,4,103,39,1,0,0,response1disk,7,-3,-9,1,0,0,rectangle,-3,-9,1,0,0,1,2,"[155,64,177,202,85,236,29,21,18,248,222,187,291,79,223,173,307,57,102,272]",-3,-9,1,0,0,0,66,65,65,87,1,,,,,,,,,,,,,,,,,,,,,
,,,,,,,,,,,,,,,,,,,,,,,,,,,,,,,,,,,,,,,,,,,5eadd6d03dcdd00d2aea4c72,5fb5d86bb10d321df4d83ada,2020-11-18_20h50.28.028,Colour_Similarity_Experiment,2020.1.2,Win32,60,5fb5945709dec70f2d595766,,,,,,,,,,,,,,,,,,,,PF,,,,,,,,2,0.065125,,,,,,,,,,,,,,,,,,,,,,,,,,,,4,-118,-51,1,0,0,response5disk,7,12,-1,1,0,0,rectangle,12,-1,1,0,0,1,6,"[155,64,177,202,85,236,29,21,18,248,222,187,291,79,223,173,307,57,102,272]",12,-1,1,0,0,0,67,66,66,38,1,,,,,,,,,,,,,,,,,,,,,
,,,,,,,,,,,,,,,,,,,,,,,,,,,,,,,,,,,,,,,,,,,5eadd6d03dcdd00d2aea4c72,5fb5d86bb10d321df4d83ada,2020-11-18_20h50.28.028,Colour_Similarity_Experiment,2020.1.2,Win32,60,5fb5945709dec70f2d595766,,,,,,,,,,,,,,,,,,,,FF,,,,,,,,4,0.368235,,,,,,,,,,,,,,,,,,,,,,,,,,,,8,66,-106,1,0,0,response3disk,2,20,-12,1,0,0,rectangle,20,-12,1,0,0,1,6,"[155,64,177,202,85,236,29,21,18,248,222,187,291,79,223,173,307,57,102,272]",20,-12,1,0,0,0,68,67,67,22,1,,,,,,,,,,,,,,,,,,,,,
,,,,,,,,,,,,,,,,,,,,,,,,,,,,,,,,,,,,,,,,,,,5eadd6d03dcdd00d2aea4c72,5fb5d86bb10d321df4d83ada,2020-11-18_20h50.28.028,Colour_Similarity_Experiment,2020.1.2,Win32,60,5fb5945709dec70f2d595766,,,,,,,,,,,,,,,,,,,,PF,,,,,,,,4,0.455915,,,,,,,,,,,,,,,,,,,,,,,,,,,,3,53,-140,1,0,0,response3disk,2,-20,2,1,0,0,rectangle,-20,2,1,0,0,1,3,"[155,64,177,202,85,236,29,21,18,248,222,187,291,79,223,173,307,57,102,272]",-20,2,1,0,0,0,69,68,68,36,1,,,,,,,,,,,,,,,,,,,,,
,,,,,,,,,,,,,,,,,,,,,,,,,,,,,,,,,,,,,,,,,,,5eadd6d03dcdd00d2aea4c72,5fb5d86bb10d321df4d83ada,2020-11-18_20h50.28.028,Colour_Similarity_Experiment,2020.1.2,Win32,60,5fb5945709dec70f2d595766,,,,,,,,,,,,,,,,,,,,PF,,,,,,,,4,0.21247,,,,,,,,,,,,,,,,,,,,,,,,,,,,4,69,-155,1,0,0,response3disk,3,13,-9,1,0,0,rectangle,13,-9,1,0,0,1,5,"[155,64,177,202,85,236,29,21,18,248,222,187,291,79,223,173,307,57,102,272]",13,-9,1,0,0,0,70,69,69,89,1,,,,,,,,,,,,,,,,,,,,,
,,,,,,,,,,,,,,,,,,,,,,,,,,,,,,,,,,,,,,,,,,,5eadd6d03dcdd00d2aea4c72,5fb5d86bb10d321df4d83ada,2020-11-18_20h50.28.028,Colour_Similarity_Experiment,2020.1.2,Win32,60,5fb5945709dec70f2d595766,,,,,,,,,,,,,,,,,,,,PF,,,,,,,,1,0.707555,,,,,,,,,,,,,,,,,,,,,,,,,,,,8,-125,37,1,0,0,response7disk,3,-27,-5,1,0,0,rectangle,-27,-5,1,0,0,1,6,"[155,64,177,202,85,236,29,21,18,248,222,187,291,79,223,173,307,57,102,272]",-27,-5,1,0,0,0,71,70,70,71,1,,,,,,,,,,,,,,,,,,,,,
,,,,,,,,,,,,,,,,,,,,,,,,,,,,,,,,,,,,,,,,,,,5eadd6d03dcdd00d2aea4c72,5fb5d86bb10d321df4d83ada,2020-11-18_20h50.28.028,Colour_Similarity_Experiment,2020.1.2,Win32,60,5fb5945709dec70f2d595766,,,,,,,,,,,,,,,,,,,,PF,,,,,,,,2,0.41188,,,,,,,,,,,,,,,,,,,,,,,,,,,,9,-110,-47,1,0,0,response5disk,2,1,-8,1,0,0,rectangle,1,-8,1,0,0,1,4,"[155,64,177,202,85,236,29,21,18,248,222,187,291,79,223,173,307,57,102,272]",1,-8,1,0,0,0,72,71,71,157,1,,,,,,,,,,,,,,,,,,,,,
,,,,,,,,,,,,,,,,,,,,,,,,,,,,,,,,,,,,,,,,,,,5eadd6d03dcdd00d2aea4c72,5fb5d86bb10d321df4d83ada,2020-11-18_20h50.28.028,Colour_Similarity_Experiment,2020.1.2,Win32,60,5fb5945709dec70f2d595766,,,,,,,,,,,,,,,,,,,,PF,,,,,,,,1,0.35863,,,,,,,,,,,,,,,,,,,,,,,,,,,,6,-115,32,1,0,0,response7disk,7,16,-1,1,0,0,rectangle,16,-1,1,0,0,1,6,"[155,64,177,202,85,236,29,21,18,248,222,187,291,79,223,173,307,57,102,272]",16,-1,1,0,0,0,73,72,72,50,1,,,,,,,,,,,,,,,,,,,,,
,,,,,,,,,,,,,,,,,,,,,,,,,,,,,,,,,,,,,,,,,,,5eadd6d03dcdd00d2aea4c72,5fb5d86bb10d321df4d83ada,2020-11-18_20h50.28.028,Colour_Similarity_Experiment,2020.1.2,Win32,60,5fb5945709dec70f2d595766,,,,,,,,,,,,,,,,,,,,PF,,,,,,,,1,0.386895,,,,,,,,,,,,,,,,,,,,,,,,,,,,3,-114,36,1,0,0,response7disk,3,-12,6,1,0,0,rectangle,-12,6,1,0,0,1,5,"[155,64,177,202,85,236,29,21,18,248,222,187,291,79,223,173,307,57,102,272]",-12,6,1,0,0,0,74,73,73,4,1,,,,,,,,,,,,,,,,,,,,,
,,,,,,,,,,,,,,,,,,,,,,,,,,,,,,,,,,,,,,,,,,,5eadd6d03dcdd00d2aea4c72,5fb5d86bb10d321df4d83ada,2020-11-18_20h50.28.028,Colour_Similarity_Experiment,2020.1.2,Win32,60,5fb5945709dec70f2d595766,,,,,,,,,,,,,,,,,,,,PF,,,,,,,,1,0.093345,,,,,,,,,,,,,,,,,,,,,,,,,,,,9,-118,49,1,0,0,response7disk,3,9,9,1,0,0,rectangle,9,9,1,0,0,1,6,"[155,64,177,202,85,236,29,21,18,248,222,187,291,79,223,173,307,57,102,272]",9,9,1,0,0,0,75,74,74,119,1,,,,,,,,,,,,,,,,,,,,,
,,,,,,,,,,,,,,,,,,,,,,,,,,,,,,,,,,,,,,,,,,,5eadd6d03dcdd00d2aea4c72,5fb5d86bb10d321df4d83ada,2020-11-18_20h50.28.028,Colour_Similarity_Experiment,2020.1.2,Win32,60,5fb5945709dec70f2d595766,,,,,,,,,,,,,,,,,,,,PF,,,,,,,,2,0.281545,,,,,,,,,,,,,,,,,,,,,,,,,,,,2,-112,-62,1,0,0,response5disk,7,0,-4,1,0,0,rectangle,0,-4,1,0,0,1,6,"[155,64,177,202,85,236,29,21,18,248,222,187,291,79,223,173,307,57,102,272]",0,-4,1,0,0,0,76,75,75,107,1,,,,,,,,,,,,,,,,,,,,,
,,,,,,,,,,,,,,,,,,,,,,,,,,,,,,,,,,,,,,,,,,,5eadd6d03dcdd00d2aea4c72,5fb5d86bb10d321df4d83ada,2020-11-18_20h50.28.028,Colour_Similarity_Experiment,2020.1.2,Win32,60,5fb5945709dec70f2d595766,,,,,,,,,,,,,,,,,,,,FF,,,,,,,,6,1.160255,,,,,,,,,,,,,,,,,,,,,,,,,,,,4,122,52,1,0,0,response1disk,4,19,0,1,0,0,rectangle,19,0,1,0,0,1,1,"[155,64,177,202,85,236,29,21,18,248,222,187,291,79,223,173,307,57,102,272]",19,0,1,0,0,0,77,76,76,84,1,,,,,,,,,,,,,,,,,,,,,
,,,,,,,,,,,,,,,,,,,,,,,,,,,,,,,,,,,,,,,,,,,5eadd6d03dcdd00d2aea4c72,5fb5d86bb10d321df4d83ada,2020-11-18_20h50.28.028,Colour_Similarity_Experiment,2020.1.2,Win32,60,5fb5945709dec70f2d595766,,,,,,,,,,,,,,,,,,,,PF,,,,,,,,5,0.800165,,,,,,,,,,,,,,,,,,,,,,,,,,,,3,107,-52,1,0,0,response3disk,9,-4,-9,1,0,0,rectangle,-4,-9,1,0,0,1,5,"[155,64,177,202,85,236,29,21,18,248,222,187,291,79,223,173,307,57,102,272]",-4,-9,1,0,0,0,78,77,77,79,1,,,,,,,,,,,,,,,,,,,,,
,,,,,,,,,,,,,,,,,,,,,,,,,,,,,,,,,,,,,,,,,,,5eadd6d03dcdd00d2aea4c72,5fb5d86bb10d321df4d83ada,2020-11-18_20h50.28.028,Colour_Similarity_Experiment,2020.1.2,Win32,60,5fb5945709dec70f2d595766,,,,,,,,,,,,,,,,,,,,FF,,,,,,,,5,0.60442,,,,,,,,,,,,,,,,,,,,,,,,,,,,6,112,-54,1,0,0,response3disk,4,-12,-3,1,0,0,rectangle,129,-56,1,0,0,5,5,"[155,64,177,202,85,236,29,21,18,248,222,187,291,79,223,173,307,57,102,272]",7,-13,1,0,0,0,79,78,78,56,1,response3disk_3,rectangle,,,,,,,,,,,,,,,,,,,
,,,,,,,,,,,,,,,,,,,,,,,,,,,,,,,,,,,,,,,,,,,5eadd6d03dcdd00d2aea4c72,5fb5d86bb10d321df4d83ada,2020-11-18_20h50.28.028,Colour_Similarity_Experiment,2020.1.2,Win32,60,5fb5945709dec70f2d595766,,,,,,,,,,,,,,,,,,,,FF,,,,,,,,1,0.53172,,,,,,,,,,,,,,,,,,,,,,,,,,,,7,-118,45,1,0,0,response7disk,5,32,-21,1,0,0,rectangle,32,-21,1,0,0,5,5,"[155,64,177,202,85,236,29,21,18,248,222,187,291,79,223,173,307,57,102,272]",32,-21,1,0,0,0,80,79,79,156,1,,,,,,,,,,,,,,,,,,,,,
,,,,,,,,,,,,,,,,,,,,,,,,,,,,,,,,,,,,,,,,,,,5eadd6d03dcdd00d2aea4c72,5fb5d86bb10d321df4d83ada,2020-11-18_20h50.28.028,Colour_Similarity_Experiment,2020.1.2,Win32,60,5fb5945709dec70f2d595766,,,,,,,,,,,,,,,,,,,,FF,,,,,,,,2,0.37311,,,,,,,,,,,,,,,,,,,,,,,,,,,,3,-102,-44,1,0,0,response5disk,6,6,-1,1,0,0,rectangle,6,-1,1,0,0,5,0,"[155,64,177,202,85,236,29,21,18,248,222,187,291,79,223,173,307,57,102,272]",6,-1,1,0,0,0,81,80,80,95,1,,,,,,,,,,,,,,,,,,,,,
,,,,,,,,,,,,,,,,,,,,,,,,,,,,,,,,,,,,,,,,,,,5eadd6d03dcdd00d2aea4c72,5fb5d86bb10d321df4d83ada,2020-11-18_20h50.28.028,Colour_Similarity_Experiment,2020.1.2,Win32,60,5fb5945709dec70f2d595766,,,,,,,,,,,,,,,,,,,,PF,,,,,,,,6,0.36121,,,,,,,,,,,,,,,,,,,,,,,,,,,,8,96,31,1,0,0,response1disk,4,5,-15,1,0,0,rectangle,5,-15,1,0,0,5,7,"[155,64,177,202,85,236,29,21,18,248,222,187,291,79,223,173,307,57,102,272]",5,-15,1,0,0,0,82,81,81,78,1,,,,,,,,,,,,,,,,,,,,,
,,,,,,,,,,,,,,,,,,,,,,,,,,,,,,,,,,,,,,,,,,,5eadd6d03dcdd00d2aea4c72,5fb5d86bb10d321df4d83ada,2020-11-18_20h50.28.028,Colour_Similarity_Experiment,2020.1.2,Win32,60,5fb5945709dec70f2d595766,,,,,,,,,,,,,,,,,,,,PF,,,,,,,,1,0.48044,,,,,,,,,,,,,,,,,,,,,,,,,,,,6,-115,47,1,0,0,response7disk,2,-9,-5,1,0,0,rectangle,-9,-5,1,0,0,5,6,"[155,64,177,202,85,236,29,21,18,248,222,187,291,79,223,173,307,57,102,272]",-9,-5,1,0,0,0,83,82,82,130,1,,,,,,,,,,,,,,,,,,,,,
,,,,,,,,,,,,,,,,,,,,,,,,,,,,,,,,,,,,,,,,,,,5eadd6d03dcdd00d2aea4c72,5fb5d86bb10d321df4d83ada,2020-11-18_20h50.28.028,Colour_Similarity_Experiment,2020.1.2,Win32,60,5fb5945709dec70f2d595766,,,,,,,,,,,,,,,,,,,,FF,,,,,,,,5,0.403605,,,,,,,,,,,,,,,,,,,,,,,,,,,,8,86,-54,1,0,0,response3disk,5,-8,-8,1,0,0,rectangle,-8,-8,1,0,0,5,5,"[155,64,177,202,85,236,29,21,18,248,222,187,291,79,223,173,307,57,102,272]",-8,-8,1,0,0,0,84,83,83,152,1,,,,,,,,,,,,,,,,,,,,,
,,,,,,,,,,,,,,,,,,,,,,,,,,,,,,,,,,,,,,,,,,,5eadd6d03dcdd00d2aea4c72,5fb5d86bb10d321df4d83ada,2020-11-18_20h50.28.028,Colour_Similarity_Experiment,2020.1.2,Win32,60,5fb5945709dec70f2d595766,,,,,,,,,,,,,,,,,,,,PF,,,,,,,,5,0.679245,,,,,,,,,,,,,,,,,,,,,,,,,,,,2,86,-48,1,0,0,response3disk,5,-17,-1,1,0,0,rectangle,-46,136,1,0,0,0,0,"[155,64,177,202,85,236,29,21,18,248,222,187,291,79,223,173,307,57,102,272]",9,-12,1,0,0,0,85,84,84,147,1,response7disk_3,rectangle,,,,,,,,,,,,,,,,,,,
,,,,,,,,,,,,,,,,,,,,,,,,,,,,,,,,,,,,,,,,,,,5eadd6d03dcdd00d2aea4c72,5fb5d86bb10d321df4d83ada,2020-11-18_20h50.28.028,Colour_Similarity_Experiment,2020.1.2,Win32,60,5fb5945709dec70f2d595766,,,,,,,,,,,,,,,,,,,,PF,,,,,,,,1,3.25767,,,,,,,,,,,,,,,,,,,,,,,,,,,,4,-110,49,1,0,0,response7disk,6,-17,2,1,0,0,rectangle,-17,2,1,0,0,0,3,"[155,64,177,202,85,236,29,21,18,248,222,187,291,79,223,173,307,57,102,272]",-17,2,1,0,0,0,86,85,85,120,1,,,,,,,,,,,,,,,,,,,,,
,,,,,,,,,,,,,,,,,,,,,,,,,,,,,,,,,,,,,,,,,,,5eadd6d03dcdd00d2aea4c72,5fb5d86bb10d321df4d83ada,2020-11-18_20h50.28.028,Colour_Similarity_Experiment,2020.1.2,Win32,60,5fb5945709dec70f2d595766,,,,,,,,,,,,,,,,,,,,FF,,,,,,,,6,0.586005,,,,,,,,,,,,,,,,,,,,,,,,,,,,3,115,38,1,0,0,response1disk,2,34,-7,1,0,0,rectangle,34,-7,1,0,0,0,6,"[155,64,177,202,85,236,29,21,18,248,222,187,291,79,223,173,307,57,102,272]",34,-7,1,0,0,0,87,86,86,93,1,,,,,,,,,,,,,,,,,,,,,
,,,,,,,,,,,,,,,,,,,,,,,,,,,,,,,,,,,,,,,,,,,5eadd6d03dcdd00d2aea4c72,5fb5d86bb10d321df4d83ada,2020-11-18_20h50.28.028,Colour_Similarity_Experiment,2020.1.2,Win32,60,5fb5945709dec70f2d595766,,,,,,,,,,,,,,,,,,,,PF,,,,,,,,6,0.575505,,,,,,,,,,,,,,,,,,,,,,,,,,,,3,146,35,1,0,0,response1disk,8,9,-4,1,0,0,rectangle,9,-4,1,0,0,0,2,"[155,64,177,202,85,236,29,21,18,248,222,187,291,79,223,173,307,57,102,272]",9,-4,1,0,0,0,88,87,87,3,1,,,,,,,,,,,,,,,,,,,,,
,,,,,,,,,,,,,,,,,,,,,,,,,,,,,,,,,,,,,,,,,,,5eadd6d03dcdd00d2aea4c72,5fb5d86bb10d321df4d83ada,2020-11-18_20h50.28.028,Colour_Similarity_Experiment,2020.1.2,Win32,60,5fb5945709dec70f2d595766,,,,,,,,,,,,,,,,,,,,PF,,,,,,,,4,0.69355,,,,,,,,,,,,,,,,,,,,,,,,,,,,6,48,-122,1,0,0,response3disk,3,14,-17,1,0,0,rectangle,14,-17,1,0,0,0,4,"[155,64,177,202,85,236,29,21,18,248,222,187,291,79,223,173,307,57,102,272]",14,-17,1,0,0,0,89,88,88,26,1,,,,,,,,,,,,,,,,,,,,,
,,,,,,,,,,,,,,,,,,,,,,,,,,,,,,,,,,,,,,,,,,,5eadd6d03dcdd00d2aea4c72,5fb5d86bb10d321df4d83ada,2020-11-18_20h50.28.028,Colour_Similarity_Experiment,2020.1.2,Win32,60,5fb5945709dec70f2d595766,,,,,,,,,,,,,,,,,,,,PF,,,,,,,,2,0.613885,,,,,,,,,,,,,,,,,,,,,,,,,,,,7,-98,-47,1,0,0,response5disk,5,11,3,1,0,0,rectangle,11,3,1,0,0,0,4,"[155,64,177,202,85,236,29,21,18,248,222,187,291,79,223,173,307,57,102,272]",11,3,1,0,0,0,90,89,89,92,1,,,,,,,,,,,,,,,,,,,,,
,,,,,,,,,,,,,,,,,,,,,,,,,,,,,,,,,,,,,,,,,,,5eadd6d03dcdd00d2aea4c72,5fb5d86bb10d321df4d83ada,2020-11-18_20h50.28.028,Colour_Similarity_Experiment,2020.1.2,Win32,60,5fb5945709dec70f2d595766,,,,,,,,,,,,,,,,,,,,PF,,,,,,,,1,0.425895,,,,,,,,,,,,,,,,,,,,,,,,,,,,7,-126,39,1,0,0,response7disk,8,-16,-6,1,0,0,rectangle,-16,-6,1,0,0,0,2,"[155,64,177,202,85,236,29,21,18,248,222,187,291,79,223,173,307,57,102,272]",-16,-6,1,0,0,0,91,90,90,140,1,,,,,,,,,,,,,,,,,,,,,
,,,,,,,,,,,,,,,,,,,,,,,,,,,,,,,,,,,,,,,,,,,5eadd6d03dcdd00d2aea4c72,5fb5d86bb10d321df4d83ada,2020-11-18_20h50.28.028,Colour_Similarity_Experiment,2020.1.2,Win32,60,5fb5945709dec70f2d595766,,,,,,,,,,,,,,,,,,,,FF,,,,,,,,3,0.481865,,,,,,,,,,,,,,,,,,,,,,,,,,,,5,-54,-110,1,0,0,response5disk,3,-10,4,1,0,0,rectangle,-10,4,1,0,0,0,7,"[155,64,177,202,85,236,29,21,18,248,222,187,291,79,223,173,307,57,102,272]",-10,4,1,0,0,0,92,91,91,25,1,,,,,,,,,,,,,,,,,,,,,
,,,,,,,,,,,,,,,,,,,,,,,,,,,,,,,,,,,,,,,,,,,5eadd6d03dcdd00d2aea4c72,5fb5d86bb10d321df4d83ada,2020-11-18_20h50.28.028,Colour_Similarity_Experiment,2020.1.2,Win32,60,5fb5945709dec70f2d595766,,,,,,,,,,,,,,,,,,,,PF,,,,,,,,3,0.498405,,,,,,,,,,,,,,,,,,,,,,,,,,,,4,-64,-128,1,0,0,response5disk,5,19,9,1,0,0,rectangle,19,9,1,0,0,0,2,"[155,64,177,202,85,236,29,21,18,248,222,187,291,79,223,173,307,57,102,272]",19,9,1,0,0,0,93,92,92,49,1,,,,,,,,,,,,,,,,,,,,,
,,,,,,,,,,,,,,,,,,,,,,,,,,,,,,,,,,,,,,,,,,,5eadd6d03dcdd00d2aea4c72,5fb5d86bb10d321df4d83ada,2020-11-18_20h50.28.028,Colour_Similarity_Experiment,2020.1.2,Win32,60,5fb5945709dec70f2d595766,,,,,,,,,,,,,,,,,,,,FF,,,,,,,,6,0.413505,,,,,,,,,,,,,,,,,,,,,,,,,,,,1,124,38,1,0,0,response1disk,9,-33,1,1,0,0,rectangle,-33,1,1,0,0,0,1,"[155,64,177,202,85,236,29,21,18,248,222,187,291,79,223,173,307,57,102,272]",-33,1,1,0,0,0,94,93,93,123,1,,,,,,,,,,,,,,,,,,,,,
,,,,,,,,,,,,,,,,,,,,,,,,,,,,,,,,,,,,,,,,,,,5eadd6d03dcdd00d2aea4c72,5fb5d86bb10d321df4d83ada,2020-11-18_20h50.28.028,Colour_Similarity_Experiment,2020.1.2,Win32,60,5fb5945709dec70f2d595766,,,,,,,,,,,,,,,,,,,,FF,,,,,,,,2,0.601885,,,,,,,,,,,,,,,,,,,,,,,,,,,,2,-114,-58,1,0,0,response5disk,3,17,-1,1,0,0,rectangle,17,-1,1,0,0,0,7,"[155,64,177,202,85,236,29,21,18,248,222,187,291,79,223,173,307,57,102,272]",17,-1,1,0,0,0,95,94,94,104,1,,,,,,,,,,,,,,,,,,,,,
,,,,,,,,,,,,,,,,,,,,,,,,,,,,,,,,,,,,,,,,,,,5eadd6d03dcdd00d2aea4c72,5fb5d86bb10d321df4d83ada,2020-11-18_20h50.28.028,Colour_Similarity_Experiment,2020.1.2,Win32,60,5fb5945709dec70f2d595766,,,,,,,,,,,,,,,,,,,,FF,,,,,,,,1,0.613665,,,,,,,,,,,,,,,,,,,,,,,,,,,,4,-122,41,1,0,0,response7disk,6,20,-3,1,0,0,rectangle,20,-3,1,0,0,0,7,"[155,64,177,202,85,236,29,21,18,248,222,187,291,79,223,173,307,57,102,272]",20,-3,1,0,0,0,96,95,95,122,1,,,,,,,,,,,,,,,,,,,,,
,,,,,,,,,,,,,,,,,,,,,,,,,,,,,,,,,,,,,,,,,,,5eadd6d03dcdd00d2aea4c72,5fb5d86bb10d321df4d83ada,2020-11-18_20h50.28.028,Colour_Similarity_Experiment,2020.1.2,Win32,60,5fb5945709dec70f2d595766,,,,,,,,,,,,,,,,,,,,PF,,,,,,,,2,0.373395,,,,,,,,,,,,,,,,,,,,,,,,,,,,6,-108,-54,1,0,0,response5disk,9,20,-4,1,0,0,rectangle,20,-4,1,0,0,0,3,"[155,64,177,202,85,236,29,21,18,248,222,187,291,79,223,173,307,57,102,272]",20,-4,1,0,0,0,97,96,96,45,1,,,,,,,,,,,,,,,,,,,,,
,,,,,,,,,,,,,,,,,,,,,,,,,,,,,,,,,,,,,,,,,,,5eadd6d03dcdd00d2aea4c72,5fb5d86bb10d321df4d83ada,2020-11-18_20h50.28.028,Colour_Similarity_Experiment,2020.1.2,Win32,60,5fb5945709dec70f2d595766,,,,,,,,,,,,,,,,,,,,FF,,,,,,,,6,0.426515,,,,,,,,,,,,,,,,,,,,,,,,,,,,2,109,59,1,0,0,response1disk,1,-31,-7,1,0,0,rectangle,-31,-7,1,0,0,0,6,"[155,64,177,202,85,236,29,21,18,248,222,187,291,79,223,173,307,57,102,272]",-31,-7,1,0,0,0,98,97,97,85,1,,,,,,,,,,,,,,,,,,,,,
,,,,,,,,,,,,,,,,,,,,,,,,,,,,,,,,,,,,,,,,,,,5eadd6d03dcdd00d2aea4c72,5fb5d86bb10d321df4d83ada,2020-11-18_20h50.28.028,Colour_Similarity_Experiment,2020.1.2,Win32,60,5fb5945709dec70f2d595766,,,,,,,,,,,,,,,,,,,,FF,,,,,,,,3,0.41294,,,,,,,,,,,,,,,,,,,,,,,,,,,,9,-74,-92,1,0,0,response5disk,6,3,8,1,0,0,rectangle,3,8,1,0,0,0,0,"[155,64,177,202,85,236,29,21,18,248,222,187,291,79,223,173,307,57,102,272]",3,8,1,0,0,0,99,98,98,117,1,,,,,,,,,,,,,,,,,,,,,
,,,,,,,,,,,,,,,,,,,,,,,,,,,,,,,,,,,,,,,,,,,5eadd6d03dcdd00d2aea4c72,5fb5d86bb10d321df4d83ada,2020-11-18_20h50.28.028,Colour_Similarity_Experiment,2020.1.2,Win32,60,5fb5945709dec70f2d595766,,,,,,,,,,,,,,,,,,,,FF,,,,,,,,2,0.65344,,,,,,,,,,,,,,,,,,,,,,,,,,,,3,-126,-56,1,0,0,response5disk,9,3,-6,1,0,0,rectangle,3,-6,1,0,0,0,6,"[155,64,177,202,85,236,29,21,18,248,222,187,291,79,223,173,307,57,102,272]",3,-6,1,0,0,0,100,99,99,143,1,,,,,,,,,,,,,,,,,,,,,
,,,,,,,,,,,,,,,,,,,,,,,,,,,,,,,,,,,,,,,,,,,5eadd6d03dcdd00d2aea4c72,5fb5d86bb10d321df4d83ada,2020-11-18_20h50.28.028,Colour_Similarity_Experiment,2020.1.2,Win32,60,5fb5945709dec70f2d595766,,,,,,,,,,,,,,,,,,,,FF,,,,,,,,1,0.70673,,,,,,,,,,,,,,,,,,,,,,,,,,,,7,-116,49,1,0,0,response7disk,8,-23,6,1,0,0,rectangle,-23,6,1,0,0,0,1,"[155,64,177,202,85,236,29,21,18,248,222,187,291,79,223,173,307,57,102,272]",-23,6,1,0,0,0,101,100,100,97,1,,,,,,,,,,,,,,,,,,,,,
,,,,,,,,,,,,,,,,,,,,,,,,,,,,,,,,,,,,,,,,,,,5eadd6d03dcdd00d2aea4c72,5fb5d86bb10d321df4d83ada,2020-11-18_20h50.28.028,Colour_Similarity_Experiment,2020.1.2,Win32,60,5fb5945709dec70f2d595766,,,,,,,,,,,,,,,,,,,,PF,,,,,,,,4,0.746965,,,,,,,,,,,,,,,,,,,,,,,,,,,,7,50,-121,1,0,0,response3disk,4,-11,-9,1,0,0,rectangle,145,63,1,0,0,6,6,"[155,64,177,202,85,236,29,21,18,248,222,187,291,79,223,173,307,57,102,272]",40,0,1,0,0,0,102,101,101,43,1,response1disk_3,rectangle,,,,,,,,,,,,,,,,,,,
,,,,,,,,,,,,,,,,,,,,,,,,,,,,,,,,,,,,,,,,,,,5eadd6d03dcdd00d2aea4c72,5fb5d86bb10d321df4d83ada,2020-11-18_20h50.28.028,Colour_Similarity_Experiment,2020.1.2,Win32,60,5fb5945709dec70f2d595766,,,,,,,,,,,,,,,,,,,,FF,,,,,,,,3,2.28106,,,,,,,,,,,,,,,,,,,,,,,,,,,,9,-58,-130,1,0,0,response5disk,7,-10,-15,1,0,0,rectangle,-10,-15,1,0,0,6,0,"[155,64,177,202,85,236,29,21,18,248,222,187,291,79,223,173,307,57,102,272]",-10,-15,1,0,0,0,103,102,102,100,1,,,,,,,,,,,,,,,,,,,,,
,,,,,,,,,,,,,,,,,,,,,,,,,,,,,,,,,,,,,,,,,,,5eadd6d03dcdd00d2aea4c72,5fb5d86bb10d321df4d83ada,2020-11-18_20h50.28.028,Colour_Similarity_Experiment,2020.1.2,Win32,60,5fb5945709dec70f2d595766,,,,,,,,,,,,,,,,,,,,PF,,,,,,,,3,0.747125,,,,,,,,,,,,,,,,,,,,,,,,,,,,2,-44,-120,1,0,0,response5disk,6,-5,2,1,0,0,rectangle,-5,2,1,0,0,6,4,"[155,64,177,202,85,236,29,21,18,248,222,187,291,79,223,173,307,57,102,272]",-5,2,1,0,0,0,104,103,103,113,1,,,,,,,,,,,,,,,,,,,,,
,,,,,,,,,,,,,,,,,,,,,,,,,,,,,,,,,,,,,,,,,,,5eadd6d03dcdd00d2aea4c72,5fb5d86bb10d321df4d83ada,2020-11-18_20h50.28.028,Colour_Similarity_Experiment,2020.1.2,Win32,60,5fb5945709dec70f2d595766,,,,,,,,,,,,,,,,,,,,FF,,,,,,,,4,1.042215,,,,,,,,,,,,,,,,,,,,,,,,,,,,6,63,-124,1,0,0,response3disk,9,-6,-2,1,0,0,rectangle,-6,-2,1,0,0,6,7,"[155,64,177,202,85,236,29,21,18,248,222,187,291,79,223,173,307,57,102,272]",-6,-2,1,0,0,0,105,104,104,160,1,,,,,,,,,,,,,,,,,,,,,
,,,,,,,,,,,,,,,,,,,,,,,,,,,,,,,,,,,,,,,,,,,5eadd6d03dcdd00d2aea4c72,5fb5d86bb10d321df4d83ada,2020-11-18_20h50.28.028,Colour_Similarity_Experiment,2020.1.2,Win32,60,5fb5945709dec70f2d595766,,,,,,,,,,,,,,,,,,,,PF,,,,,,,,2,0.428715,,,,,,,,,,,,,,,,,,,,,,,,,,,,9,-119,-65,1,0,0,response5disk,1,-21,-5,1,0,0,rectangle,-21,-5,1,0,0,6,7,"[155,64,177,202,85,236,29,21,18,248,222,187,291,79,223,173,307,57,102,272]",-21,-5,1,0,0,0,106,105,105,74,1,,,,,,,,,,,,,,,,,,,,,
,,,,,,,,,,,,,,,,,,,,,,,,,,,,,,,,,,,,,,,,,,,5eadd6d03dcdd00d2aea4c72,5fb5d86bb10d321df4d83ada,2020-11-18_20h50.28.028,Colour_Similarity_Experiment,2020.1.2,Win32,60,5fb5945709dec70f2d595766,,,,,,,,,,,,,,,,,,,,PF,,,,,,,,1,0.37109,,,,,,,,,,,,,,,,,,,,,,,,,,,,7,-125,32,1,0,0,response7disk,9,-4,5,1,0,0,rectangle,-4,5,1,0,0,6,7,"[155,64,177,202,85,236,29,21,18,248,222,187,291,79,223,173,307,57,102,272]",-4,5,1,0,0,0,107,106,106,10,1,,,,,,,,,,,,,,,,,,,,,
,,,,,,,,,,,,,,,,,,,,,,,,,,,,,,,,,,,,,,,,,,,5eadd6d03dcdd00d2aea4c72,5fb5d86bb10d321df4d83ada,2020-11-18_20h50.28.028,Colour_Similarity_Experiment,2020.1.2,Win32,60,5fb5945709dec70f2d595766,,,,,,,,,,,,,,,,,,,,PF,,,,,,,,2,0.67794,,,,,,,,,,,,,,,,,,,,,,,,,,,,9,-118,-45,1,0,0,response5disk,9,-16,-3,1,0,0,rectangle,-16,-3,1,0,0,6,6,"[155,64,177,202,85,236,29,21,18,248,222,187,291,79,223,173,307,57,102,272]",-16,-3,1,0,0,0,108,107,107,106,1,,,,,,,,,,,,,,,,,,,,,
,,,,,,,,,,,,,,,,,,,,,,,,,,,,,,,,,,,,,,,,,,,5eadd6d03dcdd00d2aea4c72,5fb5d86bb10d321df4d83ada,2020-11-18_20h50.28.028,Colour_Similarity_Experiment,2020.1.2,Win32,60,5fb5945709dec70f2d595766,,,,,,,,,,,,,,,,,,,,PF,,,,,,,,0,0.56046,,,,,,,,,,,,,,,,,,,,,,,,,,,,9,-56,124,1,0,0,response7disk,7,-24,2,1,0,0,rectangle,-24,2,1,0,0,6,7,"[155,64,177,202,85,236,29,21,18,248,222,187,291,79,223,173,307,57,102,272]",-24,2,1,0,0,0,109,108,108,121,1,,,,,,,,,,,,,,,,,,,,,
,,,,,,,,,,,,,,,,,,,,,,,,,,,,,,,,,,,,,,,,,,,5eadd6d03dcdd00d2aea4c72,5fb5d86bb10d321df4d83ada,2020-11-18_20h50.28.028,Colour_Similarity_Experiment,2020.1.2,Win32,60,5fb5945709dec70f2d595766,,,,,,,,,,,,,,,,,,,,FF,,,,,,,,4,0.787175,,,,,,,,,,,,,,,,,,,,,,,,,,,,5,43,-117,1,0,0,response3disk,7,-18,-1,1,0,0,rectangle,-18,-1,1,0,0,6,6,"[155,64,177,202,85,236,29,21,18,248,222,187,291,79,223,173,307,57,102,272]",-18,-1,1,0,0,0,110,109,109,7,1,,,,,,,,,,,,,,,,,,,,,
,,,,,,,,,,,,,,,,,,,,,,,,,,,,,,,,,,,,,,,,,,,5eadd6d03dcdd00d2aea4c72,5fb5d86bb10d321df4d83ada,2020-11-18_20h50.28.028,Colour_Similarity_Experiment,2020.1.2,Win32,60,5fb5945709dec70f2d595766,,,,,,,,,,,,,,,,,,,,PF,,,,,,,,3,0.41367,,,,,,,,,,,,,,,,,,,,,,,,,,,,3,-70,-128,1,0,0,response5disk,7,-6,2,1,0,0,rectangle,-6,2,1,0,0,6,2,"[155,64,177,202,85,236,29,21,18,248,222,187,291,79,223,173,307,57,102,272]",-6,2,1,0,0,0,111,110,110,41,1,,,,,,,,,,,,,,,,,,,,,
,,,,,,,,,,,,,,,,,,,,,,,,,,,,,,,,,,,,,,,,,,,5eadd6d03dcdd00d2aea4c72,5fb5d86bb10d321df4d83ada,2020-11-18_20h50.28.028,Colour_Similarity_Experiment,2020.1.2,Win32,60,5fb5945709dec70f2d595766,,,,,,,,,,,,,,,,,,,,FF,,,,,,,,5,0.78871,,,,,,,,,,,,,,,,,,,,,,,,,,,,1,104,-53,1,0,0,response3disk,4,3,9,1,0,0,rectangle,3,9,1,0,0,6,5,"[155,64,177,202,85,236,29,21,18,248,222,187,291,79,223,173,307,57,102,272]",3,9,1,0,0,0,112,111,111,135,1,,,,,,,,,,,,,,,,,,,,,
,,,,,,,,,,,,,,,,,,,,,,,,,,,,,,,,,,,,,,,,,,,5eadd6d03dcdd00d2aea4c72,5fb5d86bb10d321df4d83ada,2020-11-18_20h50.28.028,Colour_Similarity_Experiment,2020.1.2,Win32,60,5fb5945709dec70f2d595766,,,,,,,,,,,,,,,,,,,,FF,,,,,,,,2,346.276385,,,,,,,,,,,,,,,,,,,,,,,,,,,,3,-78,-25,1,0,0,response5disk,7,0,17,1,0,0,rectangle,0,17,1,0,0,6,5,"[155,64,177,202,85,236,29,21,18,248,222,187,291,79,223,173,307,57,102,272]",0,17,1,0,0,0,113,112,112,118,1,,,,,,,,,,,,,,,,,,,,,
,,,,,,,,,,,,,,,,,,,,,,,,,,,,,,,,,,,,,,,,,,,5eadd6d03dcdd00d2aea4c72,5fb5d86bb10d321df4d83ada,2020-11-18_20h50.28.028,Colour_Similarity_Experiment,2020.1.2,Win32,60,5fb5945709dec70f2d595766,,,,,,,,,,,,,,,,,,,,FF,,,,,,,,2,0.77357,,,,,,,,,,,,,,,,,,,,,,,,,,,,1,-117,-43,1,0,0,response5disk,8,5,-15,1,0,0,rectangle,5,-15,1,0,0,6,2,"[155,64,177,202,85,236,29,21,18,248,222,187,291,79,223,173,307,57,102,272]",5,-15,1,0,0,0,114,113,113,27,1,,,,,,,,,,,,,,,,,,,,,
,,,,,,,,,,,,,,,,,,,,,,,,,,,,,,,,,,,,,,,,,,,5eadd6d03dcdd00d2aea4c72,5fb5d86bb10d321df4d83ada,2020-11-18_20h50.28.028,Colour_Similarity_Experiment,2020.1.2,Win32,60,5fb5945709dec70f2d595766,,,,,,,,,,,,,,,,,,,,PF,,,,,,,,6,0.385935,,,,,,,,,,,,,,,,,,,,,,,,,,,,8,118,53,1,0,0,response1disk,6,4,-10,1,0,0,rectangle,4,-10,1,0,0,6,0,"[155,64,177,202,85,236,29,21,18,248,222,187,291,79,223,173,307,57,102,272]",4,-10,1,0,0,0,115,114,114,161,1,,,,,,,,,,,,,,,,,,,,,
,,,,,,,,,,,,,,,,,,,,,,,,,,,,,,,,,,,,,,,,,,,5eadd6d03dcdd00d2aea4c72,5fb5d86bb10d321df4d83ada,2020-11-18_20h50.28.028,Colour_Similarity_Experiment,2020.1.2,Win32,60,5fb5945709dec70f2d595766,,,,,,,,,,,,,,,,,,,,FF,,,,,,,,6,2.44115,,,,,,,,,,,,,,,,,,,,,,,,,,,,1,125,45,1,0,0,response1disk,6,-3,3,1,0,0,rectangle,-3,3,1,0,0,6,7,"[155,64,177,202,85,236,29,21,18,248,222,187,291,79,223,173,307,57,102,272]",-3,3,1,0,0,0,116,115,115,58,1,,,,,,,,,,,,,,,,,,,,,
,,,,,,,,,,,,,,,,,,,,,,,,,,,,,,,,,,,,,,,,,,,5eadd6d03dcdd00d2aea4c72,5fb5d86bb10d321df4d83ada,2020-11-18_20h50.28.028,Colour_Similarity_Experiment,2020.1.2,Win32,60,5fb5945709dec70f2d595766,,,,,,,,,,,,,,,,,,,,FF,,,,,,,,4,0.73355,,,,,,,,,,,,,,,,,,,,,,,,,,,,9,45,-124,1,0,0,response3disk,2,-9,14,1,0,0,rectangle,-9,14,1,0,0,6,6,"[155,64,177,202,85,236,29,21,18,248,222,187,291,79,223,173,307,57,102,272]",-9,14,1,0,0,0,117,116,116,11,1,,,,,,,,,,,,,,,,,,,,,
,,,,,,,,,,,,,,,,,,,,,,,,,,,,,,,,,,,,,,,,,,,5eadd6d03dcdd00d2aea4c72,5fb5d86bb10d321df4d83ada,2020-11-18_20h50.28.028,Colour_Similarity_Experiment,2020.1.2,Win32,60,5fb5945709dec70f2d595766,,,,,,,,,,,,,,,,,,,,FF,,,,,,,,2,0.639145,,,,,,,,,,,,,,,,,,,,,,,,,,,,5,-112,-56,1,0,0,response5disk,1,23,-2,1,0,0,rectangle,23,-2,1,0,0,6,5,"[155,64,177,202,85,236,29,21,18,248,222,187,291,79,223,173,307,57,102,272]",23,-2,1,0,0,0,118,117,117,131,1,,,,,,,,,,,,,,,,,,,,,
,,,,,,,,,,,,,,,,,,,,,,,,,,,,,,,,,,,,,,,,,,,5eadd6d03dcdd00d2aea4c72,5fb5d86bb10d321df4d83ada,2020-11-18_20h50.28.028,Colour_Similarity_Experiment,2020.1.2,Win32,60,5fb5945709dec70f2d595766,,,,,,,,,,,,,,,,,,,,PF,,,,,,,,6,0.412595,,,,,,,,,,,,,,,,,,,,,,,,,,,,4,134,48,1,0,0,response1disk,9,-26,6,1,0,0,rectangle,-26,6,1,0,0,6,2,"[155,64,177,202,85,236,29,21,18,248,222,187,291,79,223,173,307,57,102,272]",-26,6,1,0,0,0,119,118,118,75,1,,,,,,,,,,,,,,,,,,,,,
,,,,,,,,,,,,,,,,,,,,,,,,,,,,,,,,,,,,,,,,,,,5eadd6d03dcdd00d2aea4c72,5fb5d86bb10d321df4d83ada,2020-11-18_20h50.28.028,Colour_Similarity_Experiment,2020.1.2,Win32,60,5fb5945709dec70f2d595766,,,,,,,,,,,,,,,,,,,,FF,,,,,,,,2,0.41433,,,,,,,,,,,,,,,,,,,,,,,,,,,,4,-97,-46,1,0,0,response5disk,9,17,-4,1,0,0,rectangle,17,-4,1,0,0,6,5,"[155,64,177,202,85,236,29,21,18,248,222,187,291,79,223,173,307,57,102,272]",17,-4,1,0,0,0,120,119,119,90,1,,,,,,,,,,,,,,,,,,,,,
,,,,,,,,,,,,,,,,,,,,,,,,,,,,,,,,,,,,,,,,,,,5eadd6d03dcdd00d2aea4c72,5fb5d86bb10d321df4d83ada,2020-11-18_20h50.28.028,Colour_Similarity_Experiment,2020.1.2,Win32,60,5fb5945709dec70f2d595766,,,,,,,,,,,,,,,,,,,,PF,,,,,,,,2,0.441445,,,,,,,,,,,,,,,,,,,,,,,,,,,,5,-112,-41,1,0,0,response5disk,2,5,-8,1,0,0,rectangle,5,-8,1,0,0,6,1,"[155,64,177,202,85,236,29,21,18,248,222,187,291,79,223,173,307,57,102,272]",5,-8,1,0,0,0,121,120,120,129,1,,,,,,,,,,,,,,,,,,,,,
,,,,,,,,,,,,,,,,,,,,,,,,,,,,,,,,,,,,,,,,,,,5eadd6d03dcdd00d2aea4c72,5fb5d86bb10d321df4d83ada,2020-11-18_20h50.28.028,Colour_Similarity_Experiment,2020.1.2,Win32,60,5fb5945709dec70f2d595766,,,,,,,,,,,,,,,,,,,,FF,,,,,,,,3,0.90614,,,,,,,,,,,,,,,,,,,,,,,,,,,,9,-64,-128,1,0,0,response5disk,5,-11,2,1,0,0,rectangle,-11,2,1,0,0,6,3,"[155,64,177,202,85,236,29,21,18,248,222,187,291,79,223,173,307,57,102,272]",-11,2,1,0,0,0,122,121,121,128,1,,,,,,,,,,,,,,,,,,,,,
,,,,,,,,,,,,,,,,,,,,,,,,,,,,,,,,,,,,,,,,,,,5eadd6d03dcdd00d2aea4c72,5fb5d86bb10d321df4d83ada,2020-11-18_20h50.28.028,Colour_Similarity_Experiment,2020.1.2,Win32,60,5fb5945709dec70f2d595766,,,,,,,,,,,,,,,,,,,,PF,,,,,,,,2,0.77355,,,,,,,,,,,,,,,,,,,,,,,,,,,,8,-141,-56,1,0,0,response5disk,9,37,9,1,0,0,rectangle,37,9,1,0,0,6,3,"[155,64,177,202,85,236,29,21,18,248,222,187,291,79,223,173,307,57,102,272]",37,9,1,0,0,0,123,122,122,42,1,,,,,,,,,,,,,,,,,,,,,
,,,,,,,,,,,,,,,,,,,,,,,,,,,,,,,,,,,,,,,,,,,5eadd6d03dcdd00d2aea4c72,5fb5d86bb10d321df4d83ada,2020-11-18_20h50.28.028,Colour_Similarity_Experiment,2020.1.2,Win32,60,5fb5945709dec70f2d595766,,,,,,,,,,,,,,,,,,,,PF,,,,,,,,3,0.772885,,,,,,,,,,,,,,,,,,,,,,,,,,,,5,-57,-128,1,0,0,response5disk,8,17,1,1,0,0,rectangle,17,1,1,0,0,6,6,"[155,64,177,202,85,236,29,21,18,248,222,187,291,79,223,173,307,57,102,272]",17,1,1,0,0,0,124,123,123,149,1,,,,,,,,,,,,,,,,,,,,,
,,,,,,,,,,,,,,,,,,,,,,,,,,,,,,,,,,,,,,,,,,,5eadd6d03dcdd00d2aea4c72,5fb5d86bb10d321df4d83ada,2020-11-18_20h50.28.028,Colour_Similarity_Experiment,2020.1.2,Win32,60,5fb5945709dec70f2d595766,,,,,,,,,,,,,,,,,,,,FF,,,,,,,,6,0.4141,,,,,,,,,,,,,,,,,,,,,,,,,,,,2,130,40,1,0,0,response1disk,4,15,-4,1,0,0,rectangle,15,-4,1,0,0,6,3,"[155,64,177,202,85,236,29,21,18,248,222,187,291,79,223,173,307,57,102,272]",15,-4,1,0,0,0,125,124,124,145,1,,,,,,,,,,,,,,,,,,,,,
,,,,,,,,,,,,,,,,,,,,,,,,,,,,,,,,,,,,,,,,,,,5eadd6d03dcdd00d2aea4c72,5fb5d86bb10d321df4d83ada,2020-11-18_20h50.28.028,Colour_Similarity_Experiment,2020.1.2,Win32,60,5fb5945709dec70f2d595766,,,,,,,,,,,,,,,,,,,,PF,,,,,,,,5,0.639105,,,,,,,,,,,,,,,,,,,,,,,,,,,,7,108,-52,1,0,0,response3disk,1,-16,0,1,0,0,rectangle,-16,0,1,0,0,6,7,"[155,64,177,202,85,236,29,21,18,248,222,187,291,79,223,173,307,57,102,272]",-16,0,1,0,0,0,126,125,125,53,1,,,,,,,,,,,,,,,,,,,,,
,,,,,,,,,,,,,,,,,,,,,,,,,,,,,,,,,,,,,,,,,,,5eadd6d03dcdd00d2aea4c72,5fb5d86bb10d321df4d83ada,2020-11-18_20h50.28.028,Colour_Similarity_Experiment,2020.1.2,Win32,60,5fb5945709dec70f2d595766,,,,,,,,,,,,,,,,,,,,PF,,,,,,,,5,0.919135,,,,,,,,,,,,,,,,,,,,,,,,,,,,1,114,-62,1,0,0,response3disk,2,-13,-6,1,0,0,rectangle,-13,-6,1,0,0,6,5,"[155,64,177,202,85,236,29,21,18,248,222,187,291,79,223,173,307,57,102,272]",-13,-6,1,0,0,0,127,126,126,24,1,,,,,,,,,,,,,,,,,,,,,
,,,,,,,,,,,,,,,,,,,,,,,,,,,,,,,,,,,,,,,,,,,5eadd6d03dcdd00d2aea4c72,5fb5d86bb10d321df4d83ada,2020-11-18_20h50.28.028,Colour_Similarity_Experiment,2020.1.2,Win32,60,5fb5945709dec70f2d595766,,,,,,,,,,,,,,,,,,,,FF,,,,,,,,2,0.57671,,,,,,,,,,,,,,,,,,,,,,,,,,,,7,-119,-45,1,0,0,response5disk,3,21,2,1,0,0,rectangle,21,2,1,0,0,6,4,"[155,64,177,202,85,236,29,21,18,248,222,187,291,79,223,173,307,57,102,272]",21,2,1,0,0,0,128,127,127,73,1,,,,,,,,,,,,,,,,,,,,,
,,,,,,,,,,,,,,,,,,,,,,,,,,,,,,,,,,,,,,,,,,,5eadd6d03dcdd00d2aea4c72,5fb5d86bb10d321df4d83ada,2020-11-18_20h50.28.028,Colour_Similarity_Experiment,2020.1.2,Win32,60,5fb5945709dec70f2d595766,,,,,,,,,,,,,,,,,,,,PF,,,,,,,,3,0.234295,,,,,,,,,,,,,,,,,,,,,,,,,,,,1,-61,-109,1,0,0,response5disk,3,-5,-3,1,0,0,rectangle,-5,-3,1,0,0,6,1,"[155,64,177,202,85,236,29,21,18,248,222,187,291,79,223,173,307,57,102,272]",-5,-3,1,0,0,0,129,128,128,1,1,,,,,,,,,,,,,,,,,,,,,
,,,,,,,,,,,,,,,,,,,,,,,,,,,,,,,,,,,,,,,,,,,5eadd6d03dcdd00d2aea4c72,5fb5d86bb10d321df4d83ada,2020-11-18_20h50.28.028,Colour_Similarity_Experiment,2020.1.2,Win32,60,5fb5945709dec70f2d595766,,,,,,,,,,,,,,,,,,,,PF,,,,,,,,2,0.31939,,,,,,,,,,,,,,,,,,,,,,,,,,,,5,-146,-56,1,0,0,response5disk,4,22,7,1,0,0,rectangle,22,7,1,0,0,6,1,"[155,64,177,202,85,236,29,21,18,248,222,187,291,79,223,173,307,57,102,272]",22,7,1,0,0,0,130,129,129,54,1,,,,,,,,,,,,,,,,,,,,,
,,,,,,,,,,,,,,,,,,,,,,,,,,,,,,,,,,,,,,,,,,,5eadd6d03dcdd00d2aea4c72,5fb5d86bb10d321df4d83ada,2020-11-18_20h50.28.028,Colour_Similarity_Experiment,2020.1.2,Win32,60,5fb5945709dec70f2d595766,,,,,,,,,,,,,,,,,,,,PF,,,,,,,,2,0.265735,,,,,,,,,,,,,,,,,,,,,,,,,,,,3,-120,-52,1,0,0,response5disk,1,7,2,1,0,0,rectangle,7,2,1,0,0,6,1,"[155,64,177,202,85,236,29,21,18,248,222,187,291,79,223,173,307,57,102,272]",7,2,1,0,0,0,131,130,130,96,1,,,,,,,,,,,,,,,,,,,,,
,,,,,,,,,,,,,,,,,,,,,,,,,,,,,,,,,,,,,,,,,,,5eadd6d03dcdd00d2aea4c72,5fb5d86bb10d321df4d83ada,2020-11-18_20h50.28.028,Colour_Similarity_Experiment,2020.1.2,Win32,60,5fb5945709dec70f2d595766,,,,,,,,,,,,,,,,,,,,PF,,,,,,,,1,0.334215,,,,,,,,,,,,,,,,,,,,,,,,,,,,4,-133,32,1,0,0,response7disk,4,11,11,1,0,0,rectangle,11,11,1,0,0,6,7,"[155,64,177,202,85,236,29,21,18,248,222,187,291,79,223,173,307,57,102,272]",11,11,1,0,0,0,132,131,131,70,1,,,,,,,,,,,,,,,,,,,,,
,,,,,,,,,,,,,,,,,,,,,,,,,,,,,,,,,,,,,,,,,,,5eadd6d03dcdd00d2aea4c72,5fb5d86bb10d321df4d83ada,2020-11-18_20h50.28.028,Colour_Similarity_Experiment,2020.1.2,Win32,60,5fb5945709dec70f2d595766,,,,,,,,,,,,,,,,,,,,PF,,,,,,,,2,0.29262,,,,,,,,,,,,,,,,,,,,,,,,,,,,8,-123,-54,1,0,0,response5disk,7,36,13,1,0,0,rectangle,36,13,1,0,0,6,6,"[155,64,177,202,85,236,29,21,18,248,222,187,291,79,223,173,307,57,102,272]",36,13,1,0,0,0,133,132,132,23,1,,,,,,,,,,,,,,,,,,,,,
,,,,,,,,,,,,,,,,,,,,,,,,,,,,,,,,,,,,,,,,,,,5eadd6d03dcdd00d2aea4c72,5fb5d86bb10d321df4d83ada,2020-11-18_20h50.28.028,Colour_Similarity_Experiment,2020.1.2,Win32,60,5fb5945709dec70f2d595766,,,,,,,,,,,,,,,,,,,,FF,,,,,,,,6,0.430925,,,,,,,,,,,,,,,,,,,,,,,,,,,,9,122,33,1,0,0,response1disk,3,-18,-6,1,0,0,rectangle,-18,-6,1,0,0,6,5,"[155,64,177,202,85,236,29,21,18,248,222,187,291,79,223,173,307,57,102,272]",-18,-6,1,0,0,0,134,133,133,141,1,,,,,,,,,,,,,,,,,,,,,
,,,,,,,,,,,,,,,,,,,,,,,,,,,,,,,,,,,,,,,,,,,5eadd6d03dcdd00d2aea4c72,5fb5d86bb10d321df4d83ada,2020-11-18_20h50.28.028,Colour_Similarity_Experiment,2020.1.2,Win32,60,5fb5945709dec70f2d595766,,,,,,,,,,,,,,,,,,,,FF,,,,,,,,1,0.61572,,,,,,,,,,,,,,,,,,,,,,,,,,,,3,-134,33,1,0,0,response7disk,8,2,-8,1,0,0,rectangle,2,-8,1,0,0,6,4,"[155,64,177,202,85,236,29,21,18,248,222,187,291,79,223,173,307,57,102,272]",2,-8,1,0,0,0,135,134,134,44,1,,,,,,,,,,,,,,,,,,,,,
,,,,,,,,,,,,,,,,,,,,,,,,,,,,,,,,,,,,,,,,,,,5eadd6d03dcdd00d2aea4c72,5fb5d86bb10d321df4d83ada,2020-11-18_20h50.28.028,Colour_Similarity_Experiment,2020.1.2,Win32,60,5fb5945709dec70f2d595766,,,,,,,,,,,,,,,,,,,,PF,,,,,,,,5,0.386875,,,,,,,,,,,,,,,,,,,,,,,,,,,,1,108,-33,1,0,0,response3disk,5,-12,6,1,0,0,rectangle,-12,6,1,0,0,6,5,"[155,64,177,202,85,236,29,21,18,248,222,187,291,79,223,173,307,57,102,272]",-12,6,1,0,0,0,136,135,135,28,1,,,,,,,,,,,,,,,,,,,,,
,,,,,,,,,,,,,,,,,,,,,,,,,,,,,,,,,,,,,,,,,,,5eadd6d03dcdd00d2aea4c72,5fb5d86bb10d321df4d83ada,2020-11-18_20h50.28.028,Colour_Similarity_Experiment,2020.1.2,Win32,60,5fb5945709dec70f2d595766,,,,,,,,,,,,,,,,,,,,PF,,,,,,,,2,0.42652,,,,,,,,,,,,,,,,,,,,,,,,,,,,6,-98,-54,1,0,0,response5disk,1,28,-9,1,0,0,rectangle,28,-9,1,0,0,6,2,"[155,64,177,202,85,236,29,21,18,248,222,187,291,79,223,173,307,57,102,272]",28,-9,1,0,0,0,137,136,136,46,1,,,,,,,,,,,,,,,,,,,,,
,,,,,,,,,,,,,,,,,,,,,,,,,,,,,,,,,,,,,,,,,,,5eadd6d03dcdd00d2aea4c72,5fb5d86bb10d321df4d83ada,2020-11-18_20h50.28.028,Colour_Similarity_Experiment,2020.1.2,Win32,60,5fb5945709dec70f2d595766,,,,,,,,,,,,,,,,,,,,FF,,,,,,,,5,0.36017,,,,,,,,,,,,,,,,,,,,,,,,,,,,7,98,-39,1,0,0,response3disk,9,-10,1,1,0,0,rectangle,-10,1,1,0,0,6,4,"[155,64,177,202,85,236,29,21,18,248,222,187,291,79,223,173,307,57,102,272]",-10,1,1,0,0,0,138,137,137,155,1,,,,,,,,,,,,,,,,,,,,,
,,,,,,,,,,,,,,,,,,,,,,,,,,,,,,,,,,,,,,,,,,,5eadd6d03dcdd00d2aea4c72,5fb5d86bb10d321df4d83ada,2020-11-18_20h50.28.028,Colour_Similarity_Experiment,2020.1.2,Win32,60,5fb5945709dec70f2d595766,,,,,,,,,,,,,,,,,,,,PF,,,,,,,,5,0.45457,,,,,,,,,,,,,,,,,,,,,,,,,,,,2,118,-52,1,0,0,response3disk,4,-2,-12,1,0,0,rectangle,-2,-12,1,0,0,6,1,"[155,64,177,202,85,236,29,21,18,248,222,187,291,79,223,173,307,57,102,272]",-2,-12,1,0,0,0,139,138,138,127,1,,,,,,,,,,,,,,,,,,,,,
,,,,,,,,,,,,,,,,,,,,,,,,,,,,,,,,,,,,,,,,,,,5eadd6d03dcdd00d2aea4c72,5fb5d86bb10d321df4d83ada,2020-11-18_20h50.28.028,Colour_Similarity_Experiment,2020.1.2,Win32,60,5fb5945709dec70f2d595766,,,,,,,,,,,,,,,,,,,,PF,,,,,,,,5,0.202815,,,,,,,,,,,,,,,,,,,,,,,,,,,,1,125,-45,1,0,0,response3disk,1,-5,-3,1,0,0,rectangle,-5,-3,1,0,0,6,5,"[155,64,177,202,85,236,29,21,18,248,222,187,291,79,223,173,307,57,102,272]",-5,-3,1,0,0,0,140,139,139,76,1,,,,,,,,,,,,,,,,,,,,,
,,,,,,,,,,,,,,,,,,,,,,,,,,,,,,,,,,,,,,,,,,,5eadd6d03dcdd00d2aea4c72,5fb5d86bb10d321df4d83ada,2020-11-18_20h50.28.028,Colour_Similarity_Experiment,2020.1.2,Win32,60,5fb5945709dec70f2d595766,,,,,,,,,,,,,,,,,,,,PF,,,,,,,,2,0.8124,,,,,,,,,,,,,,,,,,,,,,,,,,,,4,-125,-43,1,0,0,response5disk,2,2,-1,1,0,0,rectangle,2,-1,1,0,0,6,5,"[155,64,177,202,85,236,29,21,18,248,222,187,291,79,223,173,307,57,102,272]",2,-1,1,0,0,0,141,140,140,108,1,,,,,,,,,,,,,,,,,,,,,
,,,,,,,,,,,,,,,,,,,,,,,,,,,,,,,,,,,,,,,,,,,5eadd6d03dcdd00d2aea4c72,5fb5d86bb10d321df4d83ada,2020-11-18_20h50.28.028,Colour_Similarity_Experiment,2020.1.2,Win32,60,5fb5945709dec70f2d595766,,,,,,,,,,,,,,,,,,,,FF,,,,,,,,4,0.920395,,,,,,,,,,,,,,,,,,,,,,,,,,,,8,46,-132,1,0,0,response3disk,8,-16,-5,1,0,0,rectangle,-16,-5,1,0,0,6,2,"[155,64,177,202,85,236,29,21,18,248,222,187,291,79,223,173,307,57,102,272]",-16,-5,1,0,0,0,142,141,141,48,1,,,,,,,,,,,,,,,,,,,,,
,,,,,,,,,,,,,,,,,,,,,,,,,,,,,,,,,,,,,,,,,,,5eadd6d03dcdd00d2aea4c72,5fb5d86bb10d321df4d83ada,2020-11-18_20h50.28.028,Colour_Similarity_Experiment,2020.1.2,Win32,60,5fb5945709dec70f2d595766,,,,,,,,,,,,,,,,,,,,FF,,,,,,,,2,0.315735,,,,,,,,,,,,,,,,,,,,,,,,,,,,7,-91,-77,1,0,0,response5disk,7,0,4,1,0,0,rectangle,0,4,1,0,0,6,4,"[155,64,177,202,85,236,29,21,18,248,222,187,291,79,223,173,307,57,102,272]",0,4,1,0,0,0,143,142,142,34,1,,,,,,,,,,,,,,,,,,,,,
,,,,,,,,,,,,,,,,,,,,,,,,,,,,,,,,,,,,,,,,,,,5eadd6d03dcdd00d2aea4c72,5fb5d86bb10d321df4d83ada,2020-11-18_20h50.28.028,Colour_Similarity_Experiment,2020.1.2,Win32,60,5fb5945709dec70f2d595766,,,,,,,,,,,,,,,,,,,,FF,,,,,,,,1,0.48023,,,,,,,,,,,,,,,,,,,,,,,,,,,,4,-125,54,1,0,0,response7disk,5,14,1,1,0,0,rectangle,14,1,1,0,0,6,7,"[155,64,177,202,85,236,29,21,18,248,222,187,291,79,223,173,307,57,102,272]",14,1,1,0,0,0,144,143,143,116,1,,,,,,,,,,,,,,,,,,,,,
,,,,,,,,,,,,,,,,,,,,,,,,,,,,,,,,,,,,,,,,,,,5eadd6d03dcdd00d2aea4c72,5fb5d86bb10d321df4d83ada,2020-11-18_20h50.28.028,Colour_Similarity_Experiment,2020.1.2,Win32,60,5fb5945709dec70f2d595766,,,,,,,,,,,,,,,,,,,,FF,,,,,,,,2,0.36107,,,,,,,,,,,,,,,,,,,,,,,,,,,,1,-135,-31,1,0,0,response5disk,1,6,-7,1,0,0,rectangle,6,-7,1,0,0,6,5,"[155,64,177,202,85,236,29,21,18,248,222,187,291,79,223,173,307,57,102,272]",6,-7,1,0,0,0,145,144,144,151,1,,,,,,,,,,,,,,,,,,,,,
,,,,,,,,,,,,,,,,,,,,,,,,,,,,,,,,,,,,,,,,,,,5eadd6d03dcdd00d2aea4c72,5fb5d86bb10d321df4d83ada,2020-11-18_20h50.28.028,Colour_Similarity_Experiment,2020.1.2,Win32,60,5fb5945709dec70f2d595766,,,,,,,,,,,,,,,,,,,,PF,,,,,,,,6,0.35977,,,,,,,,,,,,,,,,,,,,,,,,,,,,7,115,42,1,0,0,response1disk,7,17,4,1,0,0,rectangle,17,4,1,0,0,6,7,"[155,64,177,202,85,236,29,21,18,248,222,187,291,79,223,173,307,57,102,272]",17,4,1,0,0,0,146,145,145,51,1,,,,,,,,,,,,,,,,,,,,,
,,,,,,,,,,,,,,,,,,,,,,,,,,,,,,,,,,,,,,,,,,,5eadd6d03dcdd00d2aea4c72,5fb5d86bb10d321df4d83ada,2020-11-18_20h50.28.028,Colour_Similarity_Experiment,2020.1.2,Win32,60,5fb5945709dec70f2d595766,,,,,,,,,,,,,,,,,,,,PF,,,,,,,,5,0.46699,,,,,,,,,,,,,,,,,,,,,,,,,,,,1,118,-62,1,0,0,response3disk,8,-17,-4,1,0,0,rectangle,-17,-4,1,0,0,6,3,"[155,64,177,202,85,236,29,21,18,248,222,187,291,79,223,173,307,57,102,272]",-17,-4,1,0,0,0,147,146,146,65,1,,,,,,,,,,,,,,,,,,,,,
,,,,,,,,,,,,,,,,,,,,,,,,,,,,,,,,,,,,,,,,,,,5eadd6d03dcdd00d2aea4c72,5fb5d86bb10d321df4d83ada,2020-11-18_20h50.28.028,Colour_Similarity_Experiment,2020.1.2,Win32,60,5fb5945709dec70f2d595766,,,,,,,,,,,,,,,,,,,,FF,,,,,,,,4,0.3468,,,,,,,,,,,,,,,,,,,,,,,,,,,,2,40,-88,1,0,0,response3disk,7,-10,8,1,0,0,rectangle,-10,8,1,0,0,6,3,"[155,64,177,202,85,236,29,21,18,248,222,187,291,79,223,173,307,57,102,272]",-10,8,1,0,0,0,148,147,147,63,1,,,,,,,,,,,,,,,,,,,,,
,,,,,,,,,,,,,,,,,,,,,,,,,,,,,,,,,,,,,,,,,,,5eadd6d03dcdd00d2aea4c72,5fb5d86bb10d321df4d83ada,2020-11-18_20h50.28.028,Colour_Similarity_Experiment,2020.1.2,Win32,60,5fb5945709dec70f2d595766,,,,,,,,,,,,,,,,,,,,PF,,,,,,,,4,0.37331,,,,,,,,,,,,,,,,,,,,,,,,,,,,9,69,-118,1,0,0,response3disk,6,-1,-9,1,0,0,rectangle,-1,-9,1,0,0,6,4,"[155,64,177,202,85,236,29,21,18,248,222,187,291,79,223,173,307,57,102,272]",-1,-9,1,0,0,0,149,148,148,148,1,,,,,,,,,,,,,,,,,,,,,
,,,,,,,,,,,,,,,,,,,,,,,,,,,,,,,,,,,,,,,,,,,5eadd6d03dcdd00d2aea4c72,5fb5d86bb10d321df4d83ada,2020-11-18_20h50.28.028,Colour_Similarity_Experiment,2020.1.2,Win32,60,5fb5945709dec70f2d595766,,,,,,,,,,,,,,,,,,,,FF,,,,,,,,2,1.025415,,,,,,,,,,,,,,,,,,,,,,,,,,,,7,-120,-42,1,0,0,response5disk,2,16,-3,1,0,0,rectangle,16,-3,1,0,0,6,7,"[155,64,177,202,85,236,29,21,18,248,222,187,291,79,223,173,307,57,102,272]",16,-3,1,0,0,0,150,149,149,138,1,,,,,,,,,,,,,,,,,,,,,
,,,,,,,,,,,,,,,,,,,,,,,,,,,,,,,,,,,,,,,,,,,5eadd6d03dcdd00d2aea4c72,5fb5d86bb10d321df4d83ada,2020-11-18_20h50.28.028,Colour_Similarity_Experiment,2020.1.2,Win32,60,5fb5945709dec70f2d595766,,,,,,,,,,,,,,,,,,,,PF,,,,,,,,4,0.185965,,,,,,,,,,,,,,,,,,,,,,,,,,,,4,81,-144,1,0,0,response3disk,8,-17,-10,1,0,0,rectangle,-17,-10,1,0,0,6,3,"[155,64,177,202,85,236,29,21,18,248,222,187,291,79,223,173,307,57,102,272]",-17,-10,1,0,0,0,151,150,150,124,1,,,,,,,,,,,,,,,,,,,,,
,,,,,,,,,,,,,,,,,,,,,,,,,,,,,,,,,,,,,,,,,,,5eadd6d03dcdd00d2aea4c72,5fb5d86bb10d321df4d83ada,2020-11-18_20h50.28.028,Colour_Similarity_Experiment,2020.1.2,Win32,60,5fb5945709dec70f2d595766,,,,,,,,,,,,,,,,,,,,FF,,,,,,,,4,0.52012,,,,,,,,,,,,,,,,,,,,,,,,,,,,3,40,-128,1,0,0,response3disk,5,-17,12,1,0,0,rectangle,-17,12,1,0,0,6,6,"[155,64,177,202,85,236,29,21,18,248,222,187,291,79,223,173,307,57,102,272]",-17,12,1,0,0,0,152,151,151,101,1,,,,,,,,,,,,,,,,,,,,,
,,,,,,,,,,,,,,,,,,,,,,,,,,,,,,,,,,,,,,,,,,,5eadd6d03dcdd00d2aea4c72,5fb5d86bb10d321df4d83ada,2020-11-18_20h50.28.028,Colour_Similarity_Experiment,2020.1.2,Win32,60,5fb5945709dec70f2d595766,,,,,,,,,,,,,,,,,,,,FF,,,,,,,,2,0.68131,,,,,,,,,,,,,,,,,,,,,,,,,,,,8,-98,-85,1,0,0,response5disk,6,28,-9,1,0,0,rectangle,28,-9,1,0,0,6,3,"[155,64,177,202,85,236,29,21,18,248,222,187,291,79,223,173,307,57,102,272]",28,-9,1,0,0,0,153,152,152,37,1,,,,,,,,,,,,,,,,,,,,,
,,,,,,,,,,,,,,,,,,,,,,,,,,,,,,,,,,,,,,,,,,,5eadd6d03dcdd00d2aea4c72,5fb5d86bb10d321df4d83ada,2020-11-18_20h50.28.028,Colour_Similarity_Experiment,2020.1.2,Win32,60,5fb5945709dec70f2d595766,,,,,,,,,,,,,,,,,,,,FF,,,,,,,,2,0.280305,,,,,,,,,,,,,,,,,,,,,,,,,,,,5,-104,-48,1,0,0,response5disk,4,-5,3,1,0,0,rectangle,-5,3,1,0,0,6,7,"[155,64,177,202,85,236,29,21,18,248,222,187,291,79,223,173,307,57,102,272]",-5,3,1,0,0,0,154,153,153,8,1,,,,,,,,,,,,,,,,,,,,,
,,,,,,,,,,,,,,,,,,,,,,,,,,,,,,,,,,,,,,,,,,,5eadd6d03dcdd00d2aea4c72,5fb5d86bb10d321df4d83ada,2020-11-18_20h50.28.028,Colour_Similarity_Experiment,2020.1.2,Win32,60,5fb5945709dec70f2d595766,,,,,,,,,,,,,,,,,,,,FF,,,,,,,,2,0.506075,,,,,,,,,,,,,,,,,,,,,,,,,,,,3,-124,-62,1,0,0,response5disk,1,-21,9,1,0,0,rectangle,-125,67,1,0,0,1,1,"[155,64,177,202,85,236,29,21,18,248,222,187,291,79,223,173,307,57,102,272]",1,-14,1,0,0,0,155,154,154,125,1,response7disk_3,rectangle,,,,,,,,,,,,,,,,,,,
,,,,,,,,,,,,,,,,,,,,,,,,,,,,,,,,,,,,,,,,,,,5eadd6d03dcdd00d2aea4c72,5fb5d86bb10d321df4d83ada,2020-11-18_20h50.28.028,Colour_Similarity_Experiment,2020.1.2,Win32,60,5fb5945709dec70f2d595766,,,,,,,,,,,,,,,,,,,,FF,,,,,,,,5,0.48043,,,,,,,,,,,,,,,,,,,,,,,,,,,,6,101,-57,1,0,0,response3disk,1,22,-13,1,0,0,rectangle,22,-13,1,0,0,1,7,"[155,64,177,202,85,236,29,21,18,248,222,187,291,79,223,173,307,57,102,272]",22,-13,1,0,0,0,156,155,155,5,1,,,,,,,,,,,,,,,,,,,,,
,,,,,,,,,,,,,,,,,,,,,,,,,,,,,,,,,,,,,,,,,,,5eadd6d03dcdd00d2aea4c72,5fb5d86bb10d321df4d83ada,2020-11-18_20h50.28.028,Colour_Similarity_Experiment,2020.1.2,Win32,60,5fb5945709dec70f2d595766,,,,,,,,,,,,,,,,,,,,FF,,,,,,,,2,0.33315,,,,,,,,,,,,,,,,,,,,,,,,,,,,1,-113,-31,1,0,0,response5disk,5,14,-1,1,0,0,rectangle,14,-1,1,0,0,1,1,"[155,64,177,202,85,236,29,21,18,248,222,187,291,79,223,173,307,57,102,272]",14,-1,1,0,0,0,157,156,156,82,1,,,,,,,,,,,,,,,,,,,,,
,,,,,,,,,,,,,,,,,,,,,,,,,,,,,,,,,,,,,,,,,,,5eadd6d03dcdd00d2aea4c72,5fb5d86bb10d321df4d83ada,2020-11-18_20h50.28.028,Colour_Similarity_Experiment,2020.1.2,Win32,60,5fb5945709dec70f2d595766,,,,,,,,,,,,,,,,,,,,FF,,,,,,,,3,0.34641,,,,,,,,,,,,,,,,,,,,,,,,,,,,9,-74,-125,1,0,0,response5disk,4,5,-8,1,0,0,rectangle,5,-8,1,0,0,1,3,"[155,64,177,202,85,236,29,21,18,248,222,187,291,79,223,173,307,57,102,272]",5,-8,1,0,0,0,158,157,157,60,1,,,,,,,,,,,,,,,,,,,,,
,,,,,,,,,,,,,,,,,,,,,,,,,,,,,,,,,,,,,,,,,,,5eadd6d03dcdd00d2aea4c72,5fb5d86bb10d321df4d83ada,2020-11-18_20h50.28.028,Colour_Similarity_Experiment,2020.1.2,Win32,60,5fb5945709dec70f2d595766,,,,,,,,,,,,,,,,,,,,PF,,,,,,,,5,0.3204,,,,,,,,,,,,,,,,,,,,,,,,,,,,7,121,-46,1,0,0,response3disk,3,-11,-4,1,0,0,rectangle,-11,-4,1,0,0,1,6,"[155,64,177,202,85,236,29,21,18,248,222,187,291,79,223,173,307,57,102,272]",-11,-4,1,0,0,0,159,158,158,81,1,,,,,,,,,,,,,,,,,,,,,
,,,,,,,,,,,,,,,,,,,,,,,,,,,,,,,,,,,,,,,,,,,5eadd6d03dcdd00d2aea4c72,5fb5d86bb10d321df4d83ada,2020-11-18_20h50.28.028,Colour_Similarity_Experiment,2020.1.2,Win32,60,5fb5945709dec70f2d595766,,,,,,,,,,,,,,,,,,,,FF,,,,,,,,2,0.199175,,,,,,,,,,,,,,,,,,,,,,,,,,,,6,-131,-61,1,0,0,response5disk,2,-4,4,1,0,0,rectangle,-4,4,1,0,0,1,4,"[155,64,177,202,85,236,29,21,18,248,222,187,291,79,223,173,307,57,102,272]",-4,4,1,0,0,0,160,159,159,112,1,,,,,,,,,,,,,,,,,,,,,
,,,,,,,,,,,,,,,,,,,,,,,,,,,,,,,,,,,,,,,,,,,5eadd6d03dcdd00d2aea4c72,5fb5d86bb10d321df4d83ada,2020-11-18_20h50.28.028,Colour_Similarity_Experiment,2020.1.2,Win32,60,5fb5945709dec70f2d595766,,,,,,,,,,,,,,,,,,,,FF,,,,,,,,2,0.200435,,,,,,,,,,,,,,,,,,,,,,,,,,,,2,-130,-60,1,0,0,response5disk,6,-1,4,1,0,0,rectangle,-1,4,1,0,0,1,7,"[155,64,177,202,85,236,29,21,18,248,222,187,291,79,223,173,307,57,102,272]",-1,4,1,0,0,0,161,160,160,40,1,,,,,,,,,,,,,,,,,,,,,
,,,,,,,,,,,,,,,,,,,,,,,,,,,,,,,,,,,,,,,,,,,5eadd6d03dcdd00d2aea4c72,5fb5d86bb10d321df4d83ada,2020-11-18_20h50.28.028,Colour_Similarity_Experiment,2020.1.2,Win32,60,5fb5945709dec70f2d595766,,,,,,,,,,,,,,,,,,,,PF,,,,,,,,5,1.133705,,,,,,,,,,,,,,,,,,,,,,,,,,,,2,99,-58,1,0,0,response3disk,1,6,-5,1,0,0,rectangle,6,-5,1,0,0,1,3,"[155,64,177,202,85,236,29,21,18,248,222,187,291,79,223,173,307,57,102,272]",6,-5,1,0,0,0,162,161,161,9,1,,,,,,,,,,,,,,,,,,,,,
,,,,,,,,,,,,,,,,,,,,,,,,,,,,,,,,,,,,,,,,,,,5eadd6d03dcdd00d2aea4c72,5fb5d86bb10d321df4d83ada,2020-11-18_20h50.28.028,Colour_Similarity_Experiment,2020.1.2,Win32,60,5fb5945709dec70f2d595766,,,,,,,,,,,,,,,,,,,,,,,,,,,,,,,,,,,,,,,,,,,,,,,,,,,,,,,,,,,,,,,,,,,,,,,,,,,,,,,,,,,,,,,,,,,,0,0,0,0,1,,,,,,,,,,,,,,
,,,,,,,,,,,,,,,,,,,,,,,,,,,,,,,,,,,,,,,,,,,5eadd6d03dcdd00d2aea4c72,5fb5d86bb10d321df4d83ada,2020-11-18_20h50.28.028,Colour_Similarity_Experiment,2020.1.2,Win32,60,5fb5945709dec70f2d595766,,,,,,,,,,,,,,,,,,,,FF,,,,,,,,5,0.48007,,,,,,,,,,,,,,,,,,,,,,,,,,,,7,133,-46,1,0,0,response3disk,6,13,-4,1,0,0,rectangle,13,-4,1,0,0,1,7,"[155,64,177,202,85,236,29,21,18,248,222,187,291,79,223,173,307,57,102,272]",13,-4,1,0,0,0,163,0,0,31,1,,,,,,,,,,,,,,,,,,,,,
,,,,,,,,,,,,,,,,,,,,,,,,,,,,,,,,,,,,,,,,,,,5eadd6d03dcdd00d2aea4c72,5fb5d86bb10d321df4d83ada,2020-11-18_20h50.28.028,Colour_Similarity_Experiment,2020.1.2,Win32,60,5fb5945709dec70f2d595766,,,,,,,,,,,,,,,,,,,,FF,,,,,,,,1,0.226505,,,,,,,,,,,,,,,,,,,,,,,,,,,,3,-100,41,1,0,0,response7disk,4,9,6,1,0,0,rectangle,9,6,1,0,0,1,6,"[155,64,177,202,85,236,29,21,18,248,222,187,291,79,223,173,307,57,102,272]",9,6,1,0,0,0,164,1,1,110,1,,,,,,,,,,,,,,,,,,,,,
,,,,,,,,,,,,,,,,,,,,,,,,,,,,,,,,,,,,,,,,,,,5eadd6d03dcdd00d2aea4c72,5fb5d86bb10d321df4d83ada,2020-11-18_20h50.28.028,Colour_Similarity_Experiment,2020.1.2,Win32,60,5fb5945709dec70f2d595766,,,,,,,,,,,,,,,,,,,,PF,,,,,,,,4,0.75205,,,,,,,,,,,,,,,,,,,,,,,,,,,,2,50,-96,1,0,0,response3disk,9,1,-12,1,0,0,rectangle,1,-12,1,0,0,1,7,"[155,64,177,202,85,236,29,21,18,248,222,187,291,79,223,173,307,57,102,272]",1,-12,1,0,0,0,165,2,2,39,1,,,,,,,,,,,,,,,,,,,,,
,,,,,,,,,,,,,,,,,,,,,,,,,,,,,,,,,,,,,,,,,,,5eadd6d03dcdd00d2aea4c72,5fb5d86bb10d321df4d83ada,2020-11-18_20h50.28.028,Colour_Similarity_Experiment,2020.1.2,Win32,60,5fb5945709dec70f2d595766,,,,,,,,,,,,,,,,,,,,FF,,,,,,,,2,1.30694,,,,,,,,,,,,,,,,,,,,,,,,,,,,8,-112,-68,1,0,0,response5disk,1,-13,-8,1,0,0,rectangle,-13,-8,1,0,0,1,2,"[155,64,177,202,85,236,29,21,18,248,222,187,291,79,223,173,307,57,102,272]",-13,-8,1,0,0,0,166,3,3,20,1,,,,,,,,,,,,,,,,,,,,,
,,,,,,,,,,,,,,,,,,,,,,,,,,,,,,,,,,,,,,,,,,,5eadd6d03dcdd00d2aea4c72,5fb5d86bb10d321df4d83ada,2020-11-18_20h50.28.028,Colour_Similarity_Experiment,2020.1.2,Win32,60,5fb5945709dec70f2d595766,,,,,,,,,,,,,,,,,,,,PF,,,,,,,,4,0.26616,,,,,,,,,,,,,,,,,,,,,,,,,,,,2,60,-124,1,0,0,response3disk,2,-17,-9,1,0,0,rectangle,-17,-9,1,0,0,1,5,"[155,64,177,202,85,236,29,21,18,248,222,187,291,79,223,173,307,57,102,272]",-17,-9,1,0,0,0,167,4,4,14,1,,,,,,,,,,,,,,,,,,,,,
,,,,,,,,,,,,,,,,,,,,,,,,,,,,,,,,,,,,,,,,,,,5eadd6d03dcdd00d2aea4c72,5fb5d86bb10d321df4d83ada,2020-11-18_20h50.28.028,Colour_Similarity_Experiment,2020.1.2,Win32,60,5fb5945709dec70f2d595766,,,,,,,,,,,,,,,,,,,,PF,,,,,,,,2,0.34585,,,,,,,,,,,,,,,,,,,,,,,,,,,,8,-108,-68,1,0,0,response5disk,8,31,-4,1,0,0,rectangle,31,-4,1,0,0,1,3,"[155,64,177,202,85,236,29,21,18,248,222,187,291,79,223,173,307,57,102,272]",31,-4,1,0,0,0,168,5,5,153,1,,,,,,,,,,,,,,,,,,,,,
,,,,,,,,,,,,,,,,,,,,,,,,,,,,,,,,,,,,,,,,,,,5eadd6d03dcdd00d2aea4c72,5fb5d86bb10d321df4d83ada,2020-11-18_20h50.28.028,Colour_Similarity_Experiment,2020.1.2,Win32,60,5fb5945709dec70f2d595766,,,,,,,,,,,,,,,,,,,,PF,,,,,,,,2,0.574545,,,,,,,,,,,,,,,,,,,,,,,,,,,,5,-112,-43,1,0,0,response5disk,3,1,-3,1,0,0,rectangle,1,-3,1,0,0,1,3,"[155,64,177,202,85,236,29,21,18,248,222,187,291,79,223,173,307,57,102,272]",1,-3,1,0,0,0,169,6,6,109,1,,,,,,,,,,,,,,,,,,,,,
,,,,,,,,,,,,,,,,,,,,,,,,,,,,,,,,,,,,,,,,,,,5eadd6d03dcdd00d2aea4c72,5fb5d86bb10d321df4d83ada,2020-11-18_20h50.28.028,Colour_Similarity_Experiment,2020.1.2,Win32,60,5fb5945709dec70f2d595766,,,,,,,,,,,,,,,,,,,,FF,,,,,,,,4,0.29256,,,,,,,,,,,,,,,,,,,,,,,,,,,,4,60,-127,1,0,0,response3disk,2,-9,2,1,0,0,rectangle,-9,2,1,0,0,1,6,"[155,64,177,202,85,236,29,21,18,248,222,187,291,79,223,173,307,57,102,272]",-9,2,1,0,0,0,170,7,7,13,1,,,,,,,,,,,,,,,,,,,,,
,,,,,,,,,,,,,,,,,,,,,,,,,,,,,,,,,,,,,,,,,,,5eadd6d03dcdd00d2aea4c72,5fb5d86bb10d321df4d83ada,2020-11-18_20h50.28.028,Colour_Similarity_Experiment,2020.1.2,Win32,60,5fb5945709dec70f2d595766,,,,,,,,,,,,,,,,,,,,PF,,,,,,,,4,0.78794,,,,,,,,,,,,,,,,,,,,,,,,,,,,9,28,-126,1,0,0,response3disk,4,-11,-12,1,0,0,rectangle,-11,-12,1,0,0,1,4,"[155,64,177,202,85,236,29,21,18,248,222,187,291,79,223,173,307,57,102,272]",-11,-12,1,0,0,0,171,8,8,114,1,,,,,,,,,,,,,,,,,,,,,
,,,,,,,,,,,,,,,,,,,,,,,,,,,,,,,,,,,,,,,,,,,5eadd6d03dcdd00d2aea4c72,5fb5d86bb10d321df4d83ada,2020-11-18_20h50.28.028,Colour_Similarity_Experiment,2020.1.2,Win32,60,5fb5945709dec70f2d595766,,,,,,,,,,,,,,,,,,,,FF,,,,,,,,4,0.37249,,,,,,,,,,,,,,,,,,,,,,,,,,,,8,67,-134,1,0,0,response3disk,3,-3,0,1,0,0,rectangle,-3,0,1,0,0,1,0,"[155,64,177,202,85,236,29,21,18,248,222,187,291,79,223,173,307,57,102,272]",-3,0,1,0,0,0,172,9,9,154,1,,,,,,,,,,,,,,,,,,,,,
,,,,,,,,,,,,,,,,,,,,,,,,,,,,,,,,,,,,,,,,,,,5eadd6d03dcdd00d2aea4c72,5fb5d86bb10d321df4d83ada,2020-11-18_20h50.28.028,Colour_Similarity_Experiment,2020.1.2,Win32,60,5fb5945709dec70f2d595766,,,,,,,,,,,,,,,,,,,,PF,,,,,,,,4,0.40029,,,,,,,,,,,,,,,,,,,,,,,,,,,,9,50,-123,1,0,0,response3disk,8,-7,0,1,0,0,rectangle,-116,52,1,0,0,1,1,"[155,64,177,202,85,236,29,21,18,248,222,187,291,79,223,173,307,57,102,272]",8,-11,1,0,0,0,173,10,10,67,1,response7disk_3,rectangle,,,,,,,,,,,,,,,,,,,
,,,,,,,,,,,,,,,,,,,,,,,,,,,,,,,,,,,,,,,,,,,5eadd6d03dcdd00d2aea4c72,5fb5d86bb10d321df4d83ada,2020-11-18_20h50.28.028,Colour_Similarity_Experiment,2020.1.2,Win32,60,5fb5945709dec70f2d595766,,,,,,,,,,,,,,,,,,,,PF,,,,,,,,5,0.67449,,,,,,,,,,,,,,,,,,,,,,,,,,,,8,123,-42,1,0,0,response3disk,1,-29,1,1,0,0,rectangle,-29,1,1,0,0,1,6,"[155,64,177,202,85,236,29,21,18,248,222,187,291,79,223,173,307,57,102,272]",-29,1,1,0,0,0,174,11,11,57,1,,,,,,,,,,,,,,,,,,,,,
,,,,,,,,,,,,,,,,,,,,,,,,,,,,,,,,,,,,,,,,,,,5eadd6d03dcdd00d2aea4c72,5fb5d86bb10d321df4d83ada,2020-11-18_20h50.28.028,Colour_Similarity_Experiment,2020.1.2,Win32,60,5fb5945709dec70f2d595766,,,,,,,,,,,,,,,,,,,,FF,,,,,,,,3,1.080715,,,,,,,,,,,,,,,,,,,,,,,,,,,,7,-61,-113,1,0,0,response5disk,4,-9,-6,1,0,0,rectangle,-9,-6,1,0,0,1,3,"[155,64,177,202,85,236,29,21,18,248,222,187,291,79,223,173,307,57,102,272]",-9,-6,1,0,0,0,175,12,12,158,1,,,,,,,,,,,,,,,,,,,,,
,,,,,,,,,,,,,,,,,,,,,,,,,,,,,,,,,,,,,,,,,,,5eadd6d03dcdd00d2aea4c72,5fb5d86bb10d321df4d83ada,2020-11-18_20h50.28.028,Colour_Similarity_Experiment,2020.1.2,Win32,60,5fb5945709dec70f2d595766,,,,,,,,,,,,,,,,,,,,PF,,,,,,,,2,0.466995,,,,,,,,,,,,,,,,,,,,,,,,,,,,5,-106,-57,1,0,0,response5disk,7,5,-10,1,0,0,rectangle,5,-10,1,0,0,1,6,"[155,64,177,202,85,236,29,21,18,248,222,187,291,79,223,173,307,57,102,272]",5,-10,1,0,0,0,176,13,13,146,1,,,,,,,,,,,,,,,,,,,,,
,,,,,,,,,,,,,,,,,,,,,,,,,,,,,,,,,,,,,,,,,,,5eadd6d03dcdd00d2aea4c72,5fb5d86bb10d321df4d83ada,2020-11-18_20h50.28.028,Colour_Similarity_Experiment,2020.1.2,Win32,60,5fb5945709dec70f2d595766,,,,,,,,,,,,,,,,,,,,FF,,,,,,,,4,0.278915,,,,,,,,,,,,,,,,,,,,,,,,,,,,4,60,-118,1,0,0,response3disk,3,0,-1,1,0,0,rectangle,130,44,1,0,0,6,6,"[155,64,177,202,85,236,29,21,18,248,222,187,291,79,223,173,307,57,102,272]",-6,-17,1,0,0,0,177,14,14,77,1,response1disk_3,rectangle,,,,,,,,,,,,,,,,,,,
,,,,,,,,,,,,,,,,,,,,,,,,,,,,,,,,,,,,,,,,,,,5eadd6d03dcdd00d2aea4c72,5fb5d86bb10d321df4d83ada,2020-11-18_20h50.28.028,Colour_Similarity_Experiment,2020.1.2,Win32,60,5fb5945709dec70f2d595766,,,,,,,,,,,,,,,,,,,,FF,,,,,,,,6,0.560285,,,,,,,,,,,,,,,,,,,,,,,,,,,,6,95,42,1,0,0,response1disk,7,5,3,1,0,0,rectangle,5,3,1,0,0,6,3,"[155,64,177,202,85,236,29,21,18,248,222,187,291,79,223,173,307,57,102,272]",5,3,1,0,0,0,178,15,15,18,1,,,,,,,,,,,,,,,,,,,,,
,,,,,,,,,,,,,,,,,,,,,,,,,,,,,,,,,,,,,,,,,,,5eadd6d03dcdd00d2aea4c72,5fb5d86bb10d321df4d83ada,2020-11-18_20h50.28.028,Colour_Similarity_Experiment,2020.1.2,Win32,60,5fb5945709dec70f2d595766,,,,,,,,,,,,,,,,,,,,FF,,,,,,,,1,0.71963,,,,,,,,,,,,,,,,,,,,,,,,,,,,2,-124,35,1,0,0,response7disk,9,0,-4,1,0,0,rectangle,0,-4,1,0,0,6,7,"[155,64,177,202,85,236,29,21,18,248,222,187,291,79,223,173,307,57,102,272]",0,-4,1,0,0,0,179,16,16,72,1,,,,,,,,,,,,,,,,,,,,,
,,,,,,,,,,,,,,,,,,,,,,,,,,,,,,,,,,,,,,,,,,,5eadd6d03dcdd00d2aea4c72,5fb5d86bb10d321df4d83ada,2020-11-18_20h50.28.028,Colour_Similarity_Experiment,2020.1.2,Win32,60,5fb5945709dec70f2d595766,,,,,,,,,,,,,,,,,,,,PF,,,,,,,,2,0.306825,,,,,,,,,,,,,,,,,,,,,,,,,,,,7,-92,-49,1,0,0,response5disk,6,-9,-5,1,0,0,rectangle,-9,-5,1,0,0,6,5,"[155,64,177,202,85,236,29,21,18,248,222,187,291,79,223,173,307,57,102,272]",-9,-5,1,0,0,0,180,17,17,29,1,,,,,,,,,,,,,,,,,,,,,
,,,,,,,,,,,,,,,,,,,,,,,,,,,,,,,,,,,,,,,,,,,5eadd6d03dcdd00d2aea4c72,5fb5d86bb10d321df4d83ada,2020-11-18_20h50.28.028,Colour_Similarity_Experiment,2020.1.2,Win32,60,5fb5945709dec70f2d595766,,,,,,,,,,,,,,,,,,,,PF,,,,,,,,3,1.187425,,,,,,,,,,,,,,,,,,,,,,,,,,,,8,-58,-116,1,0,0,response5disk,2,6,4,1,0,0,rectangle,6,4,1,0,0,6,5,"[155,64,177,202,85,236,29,21,18,248,222,187,291,79,223,173,307,57,102,272]",6,4,1,0,0,0,181,18,18,83,1,,,,,,,,,,,,,,,,,,,,,
,,,,,,,,,,,,,,,,,,,,,,,,,,,,,,,,,,,,,,,,,,,5eadd6d03dcdd00d2aea4c72,5fb5d86bb10d321df4d83ada,2020-11-18_20h50.28.028,Colour_Similarity_Experiment,2020.1.2,Win32,60,5fb5945709dec70f2d595766,,,,,,,,,,,,,,,,,,,,PF,,,,,,,,2,0.254925,,,,,,,,,,,,,,,,,,,,,,,,,,,,1,-129,-48,1,0,0,response5disk,7,-3,0,1,0,0,rectangle,-3,0,1,0,0,6,4,"[155,64,177,202,85,236,29,21,18,248,222,187,291,79,223,173,307,57,102,272]",-3,0,1,0,0,0,182,19,19,150,1,,,,,,,,,,,,,,,,,,,,,
,,,,,,,,,,,,,,,,,,,,,,,,,,,,,,,,,,,,,,,,,,,5eadd6d03dcdd00d2aea4c72,5fb5d86bb10d321df4d83ada,2020-11-18_20h50.28.028,Colour_Similarity_Experiment,2020.1.2,Win32,60,5fb5945709dec70f2d595766,,,,,,,,,,,,,,,,,,,,FF,,,,,,,,4,0.21897,,,,,,,,,,,,,,,,,,,,,,,,,,,,3,43,-132,1,0,0,response3disk,3,12,4,1,0,0,rectangle,12,4,1,0,0,6,3,"[155,64,177,202,85,236,29,21,18,248,222,187,291,79,223,173,307,57,102,272]",12,4,1,0,0,0,183,20,20,68,1,,,,,,,,,,,,,,,,,,,,,
,,,,,,,,,,,,,,,,,,,,,,,,,,,,,,,,,,,,,,,,,,,5eadd6d03dcdd00d2aea4c72,5fb5d86bb10d321df4d83ada,2020-11-18_20h50.28.028,Colour_Similarity_Experiment,2020.1.2,Win32,60,5fb5945709dec70f2d595766,,,,,,,,,,,,,,,,,,,,FF,,,,,,,,4,0.76016,,,,,,,,,,,,,,,,,,,,,,,,,,,,6,64,-129,1,0,0,response3disk,6,3,8,1,0,0,rectangle,3,8,1,0,0,6,6,"[155,64,177,202,85,236,29,21,18,248,222,187,291,79,223,173,307,57,102,272]",3,8,1,0,0,0,184,21,21,91,1,,,,,,,,,,,,,,,,,,,,,
,,,,,,,,,,,,,,,,,,,,,,,,,,,,,,,,,,,,,,,,,,,5eadd6d03dcdd00d2aea4c72,5fb5d86bb10d321df4d83ada,2020-11-18_20h50.28.028,Colour_Similarity_Experiment,2020.1.2,Win32,60,5fb5945709dec70f2d595766,,,,,,,,,,,,,,,,,,,,FF,,,,,,,,5,0.319965,,,,,,,,,,,,,,,,,,,,,,,,,,,,9,107,-72,1,0,0,response3disk,1,-15,3,1,0,0,rectangle,-15,3,1,0,0,6,2,"[155,64,177,202,85,236,29,21,18,248,222,187,291,79,223,173,307,57,102,272]",-15,3,1,0,0,0,185,22,22,111,1,,,,,,,,,,,,,,,,,,,,,
,,,,,,,,,,,,,,,,,,,,,,,,,,,,,,,,,,,,,,,,,,,5eadd6d03dcdd00d2aea4c72,5fb5d86bb10d321df4d83ada,2020-11-18_20h50.28.028,Colour_Similarity_Experiment,2020.1.2,Win32,60,5fb5945709dec70f2d595766,,,,,,,,,,,,,,,,,,,,FF,,,,,,,,2,0.400335,,,,,,,,,,,,,,,,,,,,,,,,,,,,5,-120,-38,1,0,0,response5disk,6,-1,8,1,0,0,rectangle,-1,8,1,0,0,6,7,"[155,64,177,202,85,236,29,21,18,248,222,187,291,79,223,173,307,57,102,272]",-1,8,1,0,0,0,186,23,23,12,1,,,,,,,,,,,,,,,,,,,,,
,,,,,,,,,,,,,,,,,,,,,,,,,,,,,,,,,,,,,,,,,,,5eadd6d03dcdd00d2aea4c72,5fb5d86bb10d321df4d83ada,2020-11-18_20h50.28.028,Colour_Similarity_Experiment,2020.1.2,Win32,60,5fb5945709dec70f2d595766,,,,,,,,,,,,,,,,,,,,FF,,,,,,,,3,0.251925,,,,,,,,,,,,,,,,,,,,,,,,,,,,5,-73,-104,1,0,0,response5disk,8,-1,0,1,0,0,rectangle,112,-53,1,0,0,5,5,"[155,64,177,202,85,236,29,21,18,248,222,187,291,79,223,173,307,57,102,272]",6,5,1,0,0,0,187,24,24,16,1,response3disk_3,rectangle,,,,,,,,,,,,,,,,,,,
,,,,,,,,,,,,,,,,,,,,,,,,,,,,,,,,,,,,,,,,,,,5eadd6d03dcdd00d2aea4c72,5fb5d86bb10d321df4d83ada,2020-11-18_20h50.28.028,Colour_Similarity_Experiment,2020.1.2,Win32,60,5fb5945709dec70f2d595766,,,,,,,,,,,,,,,,,,,,PF,,,,,,,,1,0.32024,,,,,,,,,,,,,,,,,,,,,,,,,,,,9,-114,40,1,0,0,response7disk,5,19,4,1,0,0,rectangle,19,4,1,0,0,5,5,"[155,64,177,202,85,236,29,21,18,248,222,187,291,79,223,173,307,57,102,272]",19,4,1,0,0,0,188,25,25,134,1,,,,,,,,,,,,,,,,,,,,,
,,,,,,,,,,,,,,,,,,,,,,,,,,,,,,,,,,,,,,,,,,,5eadd6d03dcdd00d2aea4c72,5fb5d86bb10d321df4d83ada,2020-11-18_20h50.28.028,Colour_Similarity_Experiment,2020.1.2,Win32,60,5fb5945709dec70f2d595766,,,,,,,,,,,,,,,,,,,,FF,,,,,,,,2,0.3018,,,,,,,,,,,,,,,,,,,,,,,,,,,,6,-90,-62,1,0,0,response5disk,8,4,-8,1,0,0,rectangle,4,-8,1,0,0,5,5,"[155,64,177,202,85,236,29,21,18,248,222,187,291,79,223,173,307,57,102,272]",4,-8,1,0,0,0,189,26,26,133,1,,,,,,,,,,,,,,,,,,,,,
,,,,,,,,,,,,,,,,,,,,,,,,,,,,,,,,,,,,,,,,,,,5eadd6d03dcdd00d2aea4c72,5fb5d86bb10d321df4d83ada,2020-11-18_20h50.28.028,Colour_Similarity_Experiment,2020.1.2,Win32,60,5fb5945709dec70f2d595766,,,,,,,,,,,,,,,,,,,,FF,,,,,,,,3,0.460675,,,,,,,,,,,,,,,,,,,,,,,,,,,,4,-63,-122,1,0,0,response5disk,1,-6,-9,1,0,0,rectangle,-6,-9,1,0,0,5,5,"[155,64,177,202,85,236,29,21,18,248,222,187,291,79,223,173,307,57,102,272]",-6,-9,1,0,0,0,190,27,27,102,1,,,,,,,,,,,,,,,,,,,,,
,,,,,,,,,,,,,,,,,,,,,,,,,,,,,,,,,,,,,,,,,,,5eadd6d03dcdd00d2aea4c72,5fb5d86bb10d321df4d83ada,2020-11-18_20h50.28.028,Colour_Similarity_Experiment,2020.1.2,Win32,60,5fb5945709dec70f2d595766,,,,,,,,,,,,,,,,,,,,PF,,,,,,,,3,0.119185,,,,,,,,,,,,,,,,,,,,,,,,,,,,6,-74,-136,1,0,0,response5disk,6,-9,-5,1,0,0,rectangle,-9,-5,1,0,0,5,2,"[155,64,177,202,85,236,29,21,18,248,222,187,291,79,223,173,307,57,102,272]",-9,-5,1,0,0,0,191,28,28,0,1,,,,,,,,,,,,,,,,,,,,,
,,,,,,,,,,,,,,,,,,,,,,,,,,,,,,,,,,,,,,,,,,,5eadd6d03dcdd00d2aea4c72,5fb5d86bb10d321df4d83ada,2020-11-18_20h50.28.028,Colour_Similarity_Experiment,2020.1.2,Win32,60,5fb5945709dec70f2d595766,,,,,,,,,,,,,,,,,,,,FF,,,,,,,,2,0.97294,,,,,,,,,,,,,,,,,,,,,,,,,,,,8,-108,-42,1,0,0,response5disk,4,-1,-3,1,0,0,rectangle,-1,-3,1,0,0,5,6,"[155,64,177,202,85,236,29,21,18,248,222,187,291,79,223,173,307,57,102,272]",-1,-3,1,0,0,0,192,29,29,88,1,,,,,,,,,,,,,,,,,,,,,
,,,,,,,,,,,,,,,,,,,,,,,,,,,,,,,,,,,,,,,,,,,5eadd6d03dcdd00d2aea4c72,5fb5d86bb10d321df4d83ada,2020-11-18_20h50.28.028,Colour_Similarity_Experiment,2020.1.2,Win32,60,5fb5945709dec70f2d595766,,,,,,,,,,,,,,,,,,,,PF,,,,,,,,4,0.18677,,,,,,,,,,,,,,,,,,,,,,,,,,,,5,58,-134,1,0,0,response3disk,6,-14,20,1,0,0,rectangle,-14,20,1,0,0,5,5,"[155,64,177,202,85,236,29,21,18,248,222,187,291,79,223,173,307,57,102,272]",-14,20,1,0,0,0,193,30,30,103,1,,,,,,,,,,,,,,,,,,,,,
,,,,,,,,,,,,,,,,,,,,,,,,,,,,,,,,,,,,,,,,,,,5eadd6d03dcdd00d2aea4c72,5fb5d86bb10d321df4d83ada,2020-11-18_20h50.28.028,Colour_Similarity_Experiment,2020.1.2,Win32,60,5fb5945709dec70f2d595766,,,,,,,,,,,,,,,,,,,,FF,,,,,,,,4,0.353035,,,,,,,,,,,,,,,,,,,,,,,,,,,,9,48,-133,1,0,0,response3disk,9,8,6,1,0,0,rectangle,8,6,1,0,0,5,1,"[155,64,177,202,85,236,29,21,18,248,222,187,291,79,223,173,307,57,102,272]",8,6,1,0,0,0,194,31,31,17,1,,,,,,,,,,,,,,,,,,,,,
,,,,,,,,,,,,,,,,,,,,,,,,,,,,,,,,,,,,,,,,,,,5eadd6d03dcdd00d2aea4c72,5fb5d86bb10d321df4d83ada,2020-11-18_20h50.28.028,Colour_Similarity_Experiment,2020.1.2,Win32,60,5fb5945709dec70f2d595766,,,,,,,,,,,,,,,,,,,,PF,,,,,,,,4,0.85378,,,,,,,,,,,,,,,,,,,,,,,,,,,,1,51,-115,1,0,0,response3disk,9,12,2,1,0,0,rectangle,12,2,1,0,0,5,5,"[155,64,177,202,85,236,29,21,18,248,222,187,291,79,223,173,307,57,102,272]",12,2,1,0,0,0,195,32,32,15,1,,,,,,,,,,,,,,,,,,,,,
,,,,,,,,,,,,,,,,,,,,,,,,,,,,,,,,,,,,,,,,,,,5eadd6d03dcdd00d2aea4c72,5fb5d86bb10d321df4d83ada,2020-11-18_20h50.28.028,Colour_Similarity_Experiment,2020.1.2,Win32,60,5fb5945709dec70f2d595766,,,,,,,,,,,,,,,,,,,,FF,,,,,,,,4,0.346025,,,,,,,,,,,,,,,,,,,,,,,,,,,,6,63,-147,1,0,0,response3disk,5,17,4,1,0,0,rectangle,17,4,1,0,0,5,7,"[155,64,177,202,85,236,29,21,18,248,222,187,291,79,223,173,307,57,102,272]",17,4,1,0,0,0,196,33,33,126,1,,,,,,,,,,,,,,,,,,,,,
,,,,,,,,,,,,,,,,,,,,,,,,,,,,,,,,,,,,,,,,,,,5eadd6d03dcdd00d2aea4c72,5fb5d86bb10d321df4d83ada,2020-11-18_20h50.28.028,Colour_Similarity_Experiment,2020.1.2,Win32,60,5fb5945709dec70f2d595766,,,,,,,,,,,,,,,,,,,,PF,,,,,,,,5,0.412565,,,,,,,,,,,,,,,,,,,,,,,,,,,,3,116,-64,1,0,0,response3disk,6,-16,7,1,0,0,rectangle,-16,7,1,0,0,5,6,"[155,64,177,202,85,236,29,21,18,248,222,187,291,79,223,173,307,57,102,272]",-16,7,1,0,0,0,197,34,34,47,1,,,,,,,,,,,,,,,,,,,,,
,,,,,,,,,,,,,,,,,,,,,,,,,,,,,,,,,,,,,,,,,,,5eadd6d03dcdd00d2aea4c72,5fb5d86bb10d321df4d83ada,2020-11-18_20h50.28.028,Colour_Similarity_Experiment,2020.1.2,Win32,60,5fb5945709dec70f2d595766,,,,,,,,,,,,,,,,,,,,FF,,,,,,,,5,1.18611,,,,,,,,,,,,,,,,,,,,,,,,,,,,8,99,-73,1,0,0,response3disk,7,0,1,1,0,0,rectangle,0,1,1,0,0,5,7,"[155,64,177,202,85,236,29,21,18,248,222,187,291,79,223,173,307,57,102,272]",0,1,1,0,0,0,198,35,35,86,1,,,,,,,,,,,,,,,,,,,,,
,,,,,,,,,,,,,,,,,,,,,,,,,,,,,,,,,,,,,,,,,,,5eadd6d03dcdd00d2aea4c72,5fb5d86bb10d321df4d83ada,2020-11-18_20h50.28.028,Colour_Similarity_Experiment,2020.1.2,Win32,60,5fb5945709dec70f2d595766,,,,,,,,,,,,,,,,,,,,FF,,,,,,,,2,0.280465,,,,,,,,,,,,,,,,,,,,,,,,,,,,1,-106,-29,1,0,0,response5disk,3,2,5,1,0,0,rectangle,2,5,1,0,0,5,6,"[155,64,177,202,85,236,29,21,18,248,222,187,291,79,223,173,307,57,102,272]",2,5,1,0,0,0,199,36,36,99,1,,,,,,,,,,,,,,,,,,,,,
,,,,,,,,,,,,,,,,,,,,,,,,,,,,,,,,,,,,,,,,,,,5eadd6d03dcdd00d2aea4c72,5fb5d86bb10d321df4d83ada,2020-11-18_20h50.28.028,Colour_Similarity_Experiment,2020.1.2,Win32,60,5fb5945709dec70f2d595766,,,,,,,,,,,,,,,,,,,,PF,,,,,,,,5,0.565,,,,,,,,,,,,,,,,,,,,,,,,,,,,6,109,-54,1,0,0,response3disk,8,-9,0,1,0,0,rectangle,-9,0,1,0,0,5,2,"[155,64,177,202,85,236,29,21,18,248,222,187,291,79,223,173,307,57,102,272]",-9,0,1,0,0,0,200,37,37,64,1,,,,,,,,,,,,,,,,,,,,,
,,,,,,,,,,,,,,,,,,,,,,,,,,,,,,,,,,,,,,,,,,,5eadd6d03dcdd00d2aea4c72,5fb5d86bb10d321df4d83ada,2020-11-18_20h50.28.028,Colour_Similarity_Experiment,2020.1.2,Win32,60,5fb5945709dec70f2d595766,,,,,,,,,,,,,,,,,,,,PF,,,,,,,,1,0.773685,,,,,,,,,,,,,,,,,,,,,,,,,,,,7,-128,29,1,0,0,response7disk,2,17,-16,1,0,0,rectangle,17,-16,1,0,0,5,0,"[155,64,177,202,85,236,29,21,18,248,222,187,291,79,223,173,307,57,102,272]",17,-16,1,0,0,0,201,38,38,32,1,,,,,,,,,,,,,,,,,,,,,
,,,,,,,,,,,,,,,,,,,,,,,,,,,,,,,,,,,,,,,,,,,5eadd6d03dcdd00d2aea4c72,5fb5d86bb10d321df4d83ada,2020-11-18_20h50.28.028,Colour_Similarity_Experiment,2020.1.2,Win32,60,5fb5945709dec70f2d595766,,,,,,,,,,,,,,,,,,,,FF,,,,,,,,4,0.41456,,,,,,,,,,,,,,,,,,,,,,,,,,,,2,68,-122,1,0,0,response3disk,8,1,-9,1,0,0,rectangle,-111,53,1,0,0,1,1,"[155,64,177,202,85,236,29,21,18,248,222,187,291,79,223,173,307,57,102,272]",-15,-7,1,0,0,0,202,39,39,62,1,response7disk_3,rectangle,,,,,,,,,,,,,,,,,,,
,,,,,,,,,,,,,,,,,,,,,,,,,,,,,,,,,,,,,,,,,,,5eadd6d03dcdd00d2aea4c72,5fb5d86bb10d321df4d83ada,2020-11-18_20h50.28.028,Colour_Similarity_Experiment,2020.1.2,Win32,60,5fb5945709dec70f2d595766,,,,,,,,,,,,,,,,,,,,PF,,,,,,,,2,0.45339,,,,,,,,,,,,,,,,,,,,,,,,,,,,5,-85,-70,1,0,0,response5disk,5,-22,-9,1,0,0,rectangle,-22,-9,1,0,0,1,5,"[155,64,177,202,85,236,29,21,18,248,222,187,291,79,223,173,307,57,102,272]",-22,-9,1,0,0,0,203,40,40,94,1,,,,,,,,,,,,,,,,,,,,,
,,,,,,,,,,,,,,,,,,,,,,,,,,,,,,,,,,,,,,,,,,,5eadd6d03dcdd00d2aea4c72,5fb5d86bb10d321df4d83ada,2020-11-18_20h50.28.028,Colour_Similarity_Experiment,2020.1.2,Win32,60,5fb5945709dec70f2d595766,,,,,,,,,,,,,,,,,,,,PF,,,,,,,,5,0.506645,,,,,,,,,,,,,,,,,,,,,,,,,,,,1,92,-62,1,0,0,response3disk,4,5,-6,1,0,0,rectangle,5,-6,1,0,0,1,4,"[155,64,177,202,85,236,29,21,18,248,222,187,291,79,223,173,307,57,102,272]",5,-6,1,0,0,0,204,41,41,139,1,,,,,,,,,,,,,,,,,,,,,
