key_resp.keys,key_resp.rt,key_resp_16.keys,key_resp_16.rt,key_resp_2.keys,key_resp_2.rt,X Scale,ratio_pxpermm,screen_size_x,screen_size_y,testsize,key_resp_3.keys,key_resp_3.rt,key_resp_4.keys,key_resp_4.rt,line_size,key_resp_5.keys,key_resp_5.rt,key_resp_6.keys,key_resp_6.rt,key_resp_8.keys,key_resp_8.rt,key_resp_7.keys,key_resp_7.rt,key_resp_12.keys,key_resp_12.rt,key_resp_11.keys,key_resp_11.rt,key_resp_18.keys,key_resp_18.rt,key_resp_21.keys,key_resp_21.rt,key_resp_13.keys,key_resp_13.rt,key_resp_19.keys,key_resp_19.rt,ballposx,viewer_distance,trials.thisRepN,trials.thisTrialN,trials.thisN,trials.thisIndex,trials.ran,participant,session,date,expName,psychopyVersion,OS,frameRate,study_id,viewerdistancecm,DVA_to_distance,radius_F,radius_P,r_F,R_P,key_resp_20.keys,key_resp_20.rt,key_resp_14.keys,key_resp_14.rt,key_resp_15.keys,key_resp_15.rt,key_resp_17.keys,key_resp_17.rt,key_resp_9.keys,key_resp_9.rt,key_resp_10.keys,key_resp_10.rt,Colour_1,Ecc,mouse_5.x,mouse_5.y,mouse_5.leftButton,mouse_5.midButton,mouse_5.rightButton,mouse_5.clicked_name,Colour_2,similarity,response_time,mouse_10.x,mouse_10.y,mouse_10.leftButton,mouse_10.midButton,mouse_10.rightButton,mouse_10.clicked_name,mouse_7.x,mouse_7.y,mouse_7.leftButton,mouse_7.midButton,mouse_7.rightButton,catchnumberprac,mouse_6.x,mouse_6.y,mouse_6.leftButton,mouse_6.midButton,mouse_6.rightButton,duringprac.thisRepN,duringprac.thisTrialN,duringprac.thisN,duringprac.thisIndex,duringprac.ran,mouse_7.clicked_name,catchprac,mouse_6.clicked_name,key_resp_22.keys,key_resp_22.rt,Colour1,mouse.x,mouse.y,mouse.leftButton,mouse.midButton,mouse.rightButton,mouse.clicked_name,Colour2,mouse_2.x,mouse_2.y,mouse_2.leftButton,mouse_2.midButton,mouse_2.rightButton,mouse_2.clicked_name,mouse_3.x,mouse_3.y,mouse_3.leftButton,mouse_3.midButton,mouse_3.rightButton,catchresponse,catchnumber,catchtrialorder,mouse_11.x,mouse_11.y,mouse_11.leftButton,mouse_11.midButton,mouse_11.rightButton,trials_2.thisRepN,trialnumber,trials_2.thisTrialN,trials_2.thisN,trials_2.thisIndex,trials_2.ran,mouse_3.clicked_name,mouse_11.clicked_name,trials_3.thisRepN,trials_3.thisTrialN,trials_3.thisN,trials_3.thisIndex,trials_3.ran,answer1,rt1,answer2,rt2,answer3,rt3,answer4,rt4,answer5,rt5,answer6,rt6,answer7,rt7
space,3.00241,space,31.25379,space,7.2492,40.6,4.06,336.453202,189.1625616,1366,space,657.555965,space,12.05071,81.2,space,12.544235,space,5.7328,space,1.24268,space,21.137265,space,7.71812,space,6.491535,space,16.331285,space,12.86425,space,21.652285,return,4.75703,-73.764,636.2487501,0,0,0,0,1,5f3eae2b3dd0a010c0002168,5fb5da8a6693fd1d68ac9738,2020-11-19_04h38.25.830,Colour_Similarity_Experiment,2020.1.2,Win32,60,5fb5945709dec70f2d595766,,,,,,,,,,,,,,,,,,,,,,,,,,,,,,,,,,,,,,,,,,,,,,,,,,,,,,,,,,,,,,,,,,,,,,,,,,,,,,,,,,,,,,,,,,,,,,,,,,,,,,,,,,,,,,
,,,,,,,,,,,,,,,,,,,,,,,,,,,,,,,,,,return,4.86812,-84.009,646.7594673,1,0,1,0,1,5f3eae2b3dd0a010c0002168,5fb5da8a6693fd1d68ac9738,2020-11-19_04h38.25.830,Colour_Similarity_Experiment,2020.1.2,Win32,60,5fb5945709dec70f2d595766,,,,,,,,,,,,,,,,,,,,,,,,,,,,,,,,,,,,,,,,,,,,,,,,,,,,,,,,,,,,,,,,,,,,,,,,,,,,,,,,,,,,,,,,,,,,,,,,,,,,,,,,,,,,,,
,,,,,,,,,,,,,,,,,,,,,,,,,,,,,,,,,,return,4.531365,-40.98,602.6144549,2,0,2,0,1,5f3eae2b3dd0a010c0002168,5fb5da8a6693fd1d68ac9738,2020-11-19_04h38.25.830,Colour_Similarity_Experiment,2020.1.2,Win32,60,5fb5945709dec70f2d595766,,,,,,,,,,,,,,,,,,,,,,,,,,,,,,,,,,,,,,,,,,,,,,,,,,,,,,,,,,,,,,,,,,,,,,,,,,,,,,,,,,,,,,,,,,,,,,,,,,,,,,,,,,,,,,
,,,,,,,,,,,,,,,,,,,,,,,,,,,,,,,,,,return,4.373745,-24.588,585.7973074,3,0,3,0,1,5f3eae2b3dd0a010c0002168,5fb5da8a6693fd1d68ac9738,2020-11-19_04h38.25.830,Colour_Similarity_Experiment,2020.1.2,Win32,60,5fb5945709dec70f2d595766,,,,,,,,,,,,,,,,,,,,,,,,,,,,,,,,,,,,,,,,,,,,,,,,,,,,,,,,,,,,,,,,,,,,,,,,,,,,,,,,,,,,,,,,,,,,,,,,,,,,,,,,,,,,,,
,,,,,,,,,,,,,,,,,,,,,,,,,,,,,,,,,,return,4.24726,-8.196,568.9801598,4,0,4,0,1,5f3eae2b3dd0a010c0002168,5fb5da8a6693fd1d68ac9738,2020-11-19_04h38.25.830,Colour_Similarity_Experiment,2020.1.2,Win32,60,5fb5945709dec70f2d595766,,,,,,,,,,,,,,,,,,,,,,,,,,,,,,,,,,,,,,,,,,,,,,,,,,,,,,,,,,,,,,,,,,,,,,,,,,,,,,,,,,,,,,,,,,,,,,,,,,,,,,,,,,,,,,
,,,,,,,,,,,,,,,,,,,,,,,,,,,,,,,,,,,,,,,,,,,5f3eae2b3dd0a010c0002168,5fb5da8a6693fd1d68ac9738,2020-11-19_04h38.25.830,Colour_Similarity_Experiment,2020.1.2,Win32,60,5fb5945709dec70f2d595766,61,10.6475858,64.84379751,432.2919834,43.22919834,194.5313925,space,6.870785,space,48.499695,space,21.9417,space,4.123435,space,1.44943,space,7.1275,8,PF,-38,97,1,0,0,response7disk_5,8,0,5.782,8,-6,1,0,0,rectangle_8,8,-6,1,0,0,5,8,-6,1,0,0,0,0,0,4,1,,,,,,,,,,,,,,,,,,,,,,,,,,,,,,,,,,,,,,,,,,,,,,,,,,,,,,,,,,,
,,,,,,,,,,,,,,,,,,,,,,,,,,,,,,,,,,,,,,,,,,,5f3eae2b3dd0a010c0002168,5fb5da8a6693fd1d68ac9738,2020-11-19_04h38.25.830,Colour_Similarity_Experiment,2020.1.2,Win32,60,5fb5945709dec70f2d595766,,,,,,,,,,,,,,,,,,,9,FF,61,95,1,0,0,response1disk_5,5,7,4.96499,-1,1,1,0,0,rectangle_8,-1,1,1,0,0,5,-1,1,1,0,0,0,1,1,3,1,,,,,,,,,,,,,,,,,,,,,,,,,,,,,,,,,,,,,,,,,,,,,,,,,,,,,,,,,,,
,,,,,,,,,,,,,,,,,,,,,,,,,,,,,,,,,,,,,,,,,,,5f3eae2b3dd0a010c0002168,5fb5da8a6693fd1d68ac9738,2020-11-19_04h38.25.830,Colour_Similarity_Experiment,2020.1.2,Win32,60,5fb5945709dec70f2d595766,,,,,,,,,,,,,,,,,,,2,FF,50,87,1,0,0,response1disk_5,7,7,4.98786,7,-8,1,0,0,rectangle_8,7,-8,1,0,0,5,7,-8,1,0,0,0,2,2,0,1,,,,,,,,,,,,,,,,,,,,,,,,,,,,,,,,,,,,,,,,,,,,,,,,,,,,,,,,,,,
,,,,,,,,,,,,,,,,,,,,,,,,,,,,,,,,,,,,,,,,,,,5f3eae2b3dd0a010c0002168,5fb5da8a6693fd1d68ac9738,2020-11-19_04h38.25.830,Colour_Similarity_Experiment,2020.1.2,Win32,60,5fb5945709dec70f2d595766,,,,,,,,,,,,,,,,,,,1,FF,74,-34,0,0,1,response3disk_5,3,5,2.75689,-6,-10,1,0,0,rectangle_8,-6,-10,1,0,0,5,-6,-10,1,0,0,0,3,3,5,1,,,,,,,,,,,,,,,,,,,,,,,,,,,,,,,,,,,,,,,,,,,,,,,,,,,,,,,,,,,
,,,,,,,,,,,,,,,,,,,,,,,,,,,,,,,,,,,,,,,,,,,5f3eae2b3dd0a010c0002168,5fb5da8a6693fd1d68ac9738,2020-11-19_04h38.25.830,Colour_Similarity_Experiment,2020.1.2,Win32,60,5fb5945709dec70f2d595766,,,,,,,,,,,,,,,,,,,1,PF,51,90,1,0,0,response1disk_5,7,7,2.84781,-1,0,1,0,0,rectangle_8,-1,0,1,0,0,5,-1,0,1,0,0,0,4,4,2,1,,,,,,,,,,,,,,,,,,,,,,,,,,,,,,,,,,,,,,,,,,,,,,,,,,,,,,,,,,,
,,,,,,,,,,,,,,,,,,,,,,,,,,,,,,,,,,,,,,,,,,,5f3eae2b3dd0a010c0002168,5fb5da8a6693fd1d68ac9738,2020-11-19_04h38.25.830,Colour_Similarity_Experiment,2020.1.2,Win32,60,5fb5945709dec70f2d595766,,,,,,,,,,,,,,,,,,,3,PF,45,-99,1,0,0,response3disk_5,7,4,2.94835,19,9,1,0,0,rectangle_8,99,-29,1,0,0,5,-7,-4,1,0,0,0,5,5,6,1,response3disk_7,5,rectangle_4,,,,,,,,,,,,,,,,,,,,,,,,,,,,,,,,,,,,,,,,,,,,,,,,,,,,,,,,
,,,,,,,,,,,,,,,,,,,,,,,,,,,,,,,,,,,,,,,,,,,5f3eae2b3dd0a010c0002168,5fb5da8a6693fd1d68ac9738,2020-11-19_04h38.25.830,Colour_Similarity_Experiment,2020.1.2,Win32,60,5fb5945709dec70f2d595766,,,,,,,,,,,,,,,,,,,4,PF,-42,-83,1,0,0,response5disk_5,6,3,1.81124,5,6,1,0,0,rectangle_8,5,6,1,0,0,5,5,6,1,0,0,0,6,6,1,1,,,,,,,,,,,,,,,,,,,,,,,,,,,,,,,,,,,,,,,,,,,,,,,,,,,,,,,,,,,
,,,,,,,,,,,,,,,,,,,,,,,,,,,,,,,,,,,,,,,,,,,5f3eae2b3dd0a010c0002168,5fb5da8a6693fd1d68ac9738,2020-11-19_04h38.25.830,Colour_Similarity_Experiment,2020.1.2,Win32,60,5fb5945709dec70f2d595766,,,,,,,,,,,,,,,,,,,,FF,,,,,,,,5,2.679585,,,,,,,,,,,,,,,,,,,,,,,,,,space,3.828535,5,95,-43,1,0,0,response3disk,2,-8,0,1,0,0,rectangle,-8,0,1,0,0,,2,"[90,95,207,132,57,26,118,214,20,73,276,247,135,214,140,134,280,225,24,105]",-8,0,1,0,0,0,1,0,0,55,1,,,,,,,,,,,,,,,,,,,,,
,,,,,,,,,,,,,,,,,,,,,,,,,,,,,,,,,,,,,,,,,,,5f3eae2b3dd0a010c0002168,5fb5da8a6693fd1d68ac9738,2020-11-19_04h38.25.830,Colour_Similarity_Experiment,2020.1.2,Win32,60,5fb5945709dec70f2d595766,,,,,,,,,,,,,,,,,,,,PF,,,,,,,,6,8.49721,,,,,,,,,,,,,,,,,,,,,,,,,,,,5,99,40,1,0,0,response1disk,1,2,1,1,0,0,rectangle,2,1,1,0,0,,0,"[90,95,207,132,57,26,118,214,20,73,276,247,135,214,140,134,280,225,24,105]",2,1,1,0,0,0,2,1,1,159,1,,,,,,,,,,,,,,,,,,,,,
,,,,,,,,,,,,,,,,,,,,,,,,,,,,,,,,,,,,,,,,,,,5f3eae2b3dd0a010c0002168,5fb5da8a6693fd1d68ac9738,2020-11-19_04h38.25.830,Colour_Similarity_Experiment,2020.1.2,Win32,60,5fb5945709dec70f2d595766,,,,,,,,,,,,,,,,,,,,FF,,,,,,,,6,19.56761,,,,,,,,,,,,,,,,,,,,,,,,,,,,2,66,50,1,0,0,response1disk,7,6,-6,1,0,0,rectangle,6,-6,1,0,0,,3,"[90,95,207,132,57,26,118,214,20,73,276,247,135,214,140,134,280,225,24,105]",6,-6,1,0,0,0,3,2,2,63,1,,,,,,,,,,,,,,,,,,,,,
,,,,,,,,,,,,,,,,,,,,,,,,,,,,,,,,,,,,,,,,,,,5f3eae2b3dd0a010c0002168,5fb5da8a6693fd1d68ac9738,2020-11-19_04h38.25.830,Colour_Similarity_Experiment,2020.1.2,Win32,60,5fb5945709dec70f2d595766,,,,,,,,,,,,,,,,,,,,FF,,,,,,,,4,3.37187,,,,,,,,,,,,,,,,,,,,,,,,,,,,6,39,-97,1,0,0,response3disk,9,-5,-1,1,0,0,rectangle,-5,-1,1,0,0,,4,"[90,95,207,132,57,26,118,214,20,73,276,247,135,214,140,134,280,225,24,105]",-5,-1,1,0,0,0,4,3,3,160,1,,,,,,,,,,,,,,,,,,,,,
,,,,,,,,,,,,,,,,,,,,,,,,,,,,,,,,,,,,,,,,,,,5f3eae2b3dd0a010c0002168,5fb5da8a6693fd1d68ac9738,2020-11-19_04h38.25.830,Colour_Similarity_Experiment,2020.1.2,Win32,60,5fb5945709dec70f2d595766,,,,,,,,,,,,,,,,,,,,FF,,,,,,,,2,7.88621,,,,,,,,,,,,,,,,,,,,,,,,,,,,5,-91,-36,1,0,0,response5disk,6,6,10,1,0,0,rectangle,6,10,1,0,0,,7,"[90,95,207,132,57,26,118,214,20,73,276,247,135,214,140,134,280,225,24,105]",6,10,1,0,0,0,5,4,4,12,1,,,,,,,,,,,,,,,,,,,,,
,,,,,,,,,,,,,,,,,,,,,,,,,,,,,,,,,,,,,,,,,,,5f3eae2b3dd0a010c0002168,5fb5da8a6693fd1d68ac9738,2020-11-19_04h38.25.830,Colour_Similarity_Experiment,2020.1.2,Win32,60,5fb5945709dec70f2d595766,,,,,,,,,,,,,,,,,,,,FF,,,,,,,,4,3.07484,,,,,,,,,,,,,,,,,,,,,,,,,,,,6,43,-92,1,0,0,response3disk,8,-5,3,1,0,0,rectangle,-5,3,1,0,0,,2,"[90,95,207,132,57,26,118,214,20,73,276,247,135,214,140,134,280,225,24,105]",-5,3,1,0,0,0,6,5,5,133,1,,,,,,,,,,,,,,,,,,,,,
,,,,,,,,,,,,,,,,,,,,,,,,,,,,,,,,,,,,,,,,,,,5f3eae2b3dd0a010c0002168,5fb5da8a6693fd1d68ac9738,2020-11-19_04h38.25.830,Colour_Similarity_Experiment,2020.1.2,Win32,60,5fb5945709dec70f2d595766,,,,,,,,,,,,,,,,,,,,PF,,,,,,,,5,51.96845,,,,,,,,,,,,,,,,,,,,,,,,,,,,8,108,-70,1,0,0,response3disk,3,7,0,1,0,0,rectangle,7,0,1,0,0,,5,"[90,95,207,132,57,26,118,214,20,73,276,247,135,214,140,134,280,225,24,105]",7,0,1,0,0,0,7,6,6,71,1,,,,,,,,,,,,,,,,,,,,,
,,,,,,,,,,,,,,,,,,,,,,,,,,,,,,,,,,,,,,,,,,,5f3eae2b3dd0a010c0002168,5fb5da8a6693fd1d68ac9738,2020-11-19_04h38.25.830,Colour_Similarity_Experiment,2020.1.2,Win32,60,5fb5945709dec70f2d595766,,,,,,,,,,,,,,,,,,,,FF,,,,,,,,2,2.68884,,,,,,,,,,,,,,,,,,,,,,,,,,,,7,-76,-49,1,0,0,response5disk,5,-19,-2,1,0,0,rectangle,-19,-2,1,0,0,,3,"[90,95,207,132,57,26,118,214,20,73,276,247,135,214,140,134,280,225,24,105]",-19,-2,1,0,0,0,8,7,7,156,1,,,,,,,,,,,,,,,,,,,,,
,,,,,,,,,,,,,,,,,,,,,,,,,,,,,,,,,,,,,,,,,,,5f3eae2b3dd0a010c0002168,5fb5da8a6693fd1d68ac9738,2020-11-19_04h38.25.830,Colour_Similarity_Experiment,2020.1.2,Win32,60,5fb5945709dec70f2d595766,,,,,,,,,,,,,,,,,,,,FF,,,,,,,,4,4.370795,,,,,,,,,,,,,,,,,,,,,,,,,,,,9,39,-90,1,0,0,response3disk,1,-9,-1,1,0,0,rectangle,-9,-1,1,0,0,,2,"[90,95,207,132,57,26,118,214,20,73,276,247,135,214,140,134,280,225,24,105]",-9,-1,1,0,0,0,9,8,8,111,1,,,,,,,,,,,,,,,,,,,,,
,,,,,,,,,,,,,,,,,,,,,,,,,,,,,,,,,,,,,,,,,,,5f3eae2b3dd0a010c0002168,5fb5da8a6693fd1d68ac9738,2020-11-19_04h38.25.830,Colour_Similarity_Experiment,2020.1.2,Win32,60,5fb5945709dec70f2d595766,,,,,,,,,,,,,,,,,,,,PF,,,,,,,,2,1.744445,,,,,,,,,,,,,,,,,,,,,,,,,,,,9,-74,-38,1,0,0,response5disk,8,3,7,1,0,0,rectangle,3,7,1,0,0,,4,"[90,95,207,132,57,26,118,214,20,73,276,247,135,214,140,134,280,225,24,105]",3,7,1,0,0,0,10,9,9,67,1,,,,,,,,,,,,,,,,,,,,,
,,,,,,,,,,,,,,,,,,,,,,,,,,,,,,,,,,,,,,,,,,,5f3eae2b3dd0a010c0002168,5fb5da8a6693fd1d68ac9738,2020-11-19_04h38.25.830,Colour_Similarity_Experiment,2020.1.2,Win32,60,5fb5945709dec70f2d595766,,,,,,,,,,,,,,,,,,,,FF,,,,,,,,7,4.27652,,,,,,,,,,,,,,,,,,,,,,,,,,,,1,48,94,1,0,0,response1disk,3,1,0,1,0,0,rectangle,1,0,1,0,0,,5,"[90,95,207,132,57,26,118,214,20,73,276,247,135,214,140,134,280,225,24,105]",1,0,1,0,0,0,11,10,10,99,1,,,,,,,,,,,,,,,,,,,,,
,,,,,,,,,,,,,,,,,,,,,,,,,,,,,,,,,,,,,,,,,,,5f3eae2b3dd0a010c0002168,5fb5da8a6693fd1d68ac9738,2020-11-19_04h38.25.830,Colour_Similarity_Experiment,2020.1.2,Win32,60,5fb5945709dec70f2d595766,,,,,,,,,,,,,,,,,,,,PF,,,,,,,,7,1.900425,,,,,,,,,,,,,,,,,,,,,,,,,,,,2,43,86,1,0,0,response1disk,7,4,-3,1,0,0,rectangle,4,-3,1,0,0,,1,"[90,95,207,132,57,26,118,214,20,73,276,247,135,214,140,134,280,225,24,105]",4,-3,1,0,0,0,12,11,11,107,1,,,,,,,,,,,,,,,,,,,,,
,,,,,,,,,,,,,,,,,,,,,,,,,,,,,,,,,,,,,,,,,,,5f3eae2b3dd0a010c0002168,5fb5da8a6693fd1d68ac9738,2020-11-19_04h38.25.830,Colour_Similarity_Experiment,2020.1.2,Win32,60,5fb5945709dec70f2d595766,,,,,,,,,,,,,,,,,,,,PF,,,,,,,,7,2.333755,,,,,,,,,,,,,,,,,,,,,,,,,,,,9,43,71,1,0,0,response1disk,2,3,10,1,0,0,rectangle,3,10,1,0,0,,7,"[90,95,207,132,57,26,118,214,20,73,276,247,135,214,140,134,280,225,24,105]",3,10,1,0,0,0,13,12,12,157,1,,,,,,,,,,,,,,,,,,,,,
,,,,,,,,,,,,,,,,,,,,,,,,,,,,,,,,,,,,,,,,,,,5f3eae2b3dd0a010c0002168,5fb5da8a6693fd1d68ac9738,2020-11-19_04h38.25.830,Colour_Similarity_Experiment,2020.1.2,Win32,60,5fb5945709dec70f2d595766,,,,,,,,,,,,,,,,,,,,FF,,,,,,,,7,1.631585,,,,,,,,,,,,,,,,,,,,,,,,,,,,7,45,83,1,0,0,response1disk,2,9,10,1,0,0,rectangle,9,10,1,0,0,,1,"[90,95,207,132,57,26,118,214,20,73,276,247,135,214,140,134,280,225,24,105]",9,10,1,0,0,0,14,13,13,138,1,,,,,,,,,,,,,,,,,,,,,
,,,,,,,,,,,,,,,,,,,,,,,,,,,,,,,,,,,,,,,,,,,5f3eae2b3dd0a010c0002168,5fb5da8a6693fd1d68ac9738,2020-11-19_04h38.25.830,Colour_Similarity_Experiment,2020.1.2,Win32,60,5fb5945709dec70f2d595766,,,,,,,,,,,,,,,,,,,,FF,,,,,,,,7,2.119335,,,,,,,,,,,,,,,,,,,,,,,,,,,,3,58,71,1,0,0,response1disk,7,13,5,1,0,0,rectangle,13,5,1,0,0,,4,"[90,95,207,132,57,26,118,214,20,73,276,247,135,214,140,134,280,225,24,105]",13,5,1,0,0,0,15,14,14,118,1,,,,,,,,,,,,,,,,,,,,,
,,,,,,,,,,,,,,,,,,,,,,,,,,,,,,,,,,,,,,,,,,,5f3eae2b3dd0a010c0002168,5fb5da8a6693fd1d68ac9738,2020-11-19_04h38.25.830,Colour_Similarity_Experiment,2020.1.2,Win32,60,5fb5945709dec70f2d595766,,,,,,,,,,,,,,,,,,,,PF,,,,,,,,5,2.59099,,,,,,,,,,,,,,,,,,,,,,,,,,,,2,92,-72,1,0,0,response3disk,4,20,-8,1,0,0,rectangle,20,-8,1,0,0,,4,"[90,95,207,132,57,26,118,214,20,73,276,247,135,214,140,134,280,225,24,105]",20,-8,1,0,0,0,16,15,15,127,1,,,,,,,,,,,,,,,,,,,,,
,,,,,,,,,,,,,,,,,,,,,,,,,,,,,,,,,,,,,,,,,,,5f3eae2b3dd0a010c0002168,5fb5da8a6693fd1d68ac9738,2020-11-19_04h38.25.830,Colour_Similarity_Experiment,2020.1.2,Win32,60,5fb5945709dec70f2d595766,,,,,,,,,,,,,,,,,,,,PF,,,,,,,,7,1.46846,,,,,,,,,,,,,,,,,,,,,,,,,,,,1,58,71,1,0,0,response1disk,6,0,1,1,0,0,rectangle,0,1,1,0,0,,6,"[90,95,207,132,57,26,118,214,20,73,276,247,135,214,140,134,280,225,24,105]",0,1,1,0,0,0,17,16,16,144,1,,,,,,,,,,,,,,,,,,,,,
,,,,,,,,,,,,,,,,,,,,,,,,,,,,,,,,,,,,,,,,,,,5f3eae2b3dd0a010c0002168,5fb5da8a6693fd1d68ac9738,2020-11-19_04h38.25.830,Colour_Similarity_Experiment,2020.1.2,Win32,60,5fb5945709dec70f2d595766,,,,,,,,,,,,,,,,,,,,FF,,,,,,,,3,2.729185,,,,,,,,,,,,,,,,,,,,,,,,,,,,2,-33,-88,1,0,0,response5disk,4,9,-1,1,0,0,rectangle,9,-1,1,0,0,,3,"[90,95,207,132,57,26,118,214,20,73,276,247,135,214,140,134,280,225,24,105]",9,-1,1,0,0,0,18,17,17,145,1,,,,,,,,,,,,,,,,,,,,,
,,,,,,,,,,,,,,,,,,,,,,,,,,,,,,,,,,,,,,,,,,,5f3eae2b3dd0a010c0002168,5fb5da8a6693fd1d68ac9738,2020-11-19_04h38.25.830,Colour_Similarity_Experiment,2020.1.2,Win32,60,5fb5945709dec70f2d595766,,,,,,,,,,,,,,,,,,,,PF,,,,,,,,5,2.835735,,,,,,,,,,,,,,,,,,,,,,,,,,,,2,85,-39,1,0,0,response3disk,9,22,1,1,0,0,rectangle,22,1,1,0,0,,2,"[90,95,207,132,57,26,118,214,20,73,276,247,135,214,140,134,280,225,24,105]",22,1,1,0,0,0,19,18,18,39,1,,,,,,,,,,,,,,,,,,,,,
,,,,,,,,,,,,,,,,,,,,,,,,,,,,,,,,,,,,,,,,,,,5f3eae2b3dd0a010c0002168,5fb5da8a6693fd1d68ac9738,2020-11-19_04h38.25.830,Colour_Similarity_Experiment,2020.1.2,Win32,60,5fb5945709dec70f2d595766,,,,,,,,,,,,,,,,,,,,FF,,,,,,,,3,1.853225,,,,,,,,,,,,,,,,,,,,,,,,,,,,1,-26,-84,1,0,0,response5disk,9,0,2,1,0,0,rectangle,40,93,1,0,0,7,7,"[90,95,207,132,57,26,118,214,20,73,276,247,135,214,140,134,280,225,24,105]",-3,-3,1,0,0,0,20,19,19,123,1,response1disk_3,rectangle,,,,,,,,,,,,,,,,,,,
,,,,,,,,,,,,,,,,,,,,,,,,,,,,,,,,,,,,,,,,,,,5f3eae2b3dd0a010c0002168,5fb5da8a6693fd1d68ac9738,2020-11-19_04h38.25.830,Colour_Similarity_Experiment,2020.1.2,Win32,60,5fb5945709dec70f2d595766,,,,,,,,,,,,,,,,,,,,FF,,,,,,,,3,2.177885,,,,,,,,,,,,,,,,,,,,,,,,,,,,8,-50,-79,1,0,0,response5disk,6,7,6,1,0,0,rectangle,7,6,1,0,0,7,2,"[90,95,207,132,57,26,118,214,20,73,276,247,135,214,140,134,280,225,24,105]",7,6,1,0,0,0,21,20,20,37,1,,,,,,,,,,,,,,,,,,,,,
,,,,,,,,,,,,,,,,,,,,,,,,,,,,,,,,,,,,,,,,,,,5f3eae2b3dd0a010c0002168,5fb5da8a6693fd1d68ac9738,2020-11-19_04h38.25.830,Colour_Similarity_Experiment,2020.1.2,Win32,60,5fb5945709dec70f2d595766,,,,,,,,,,,,,,,,,,,,FF,,,,,,,,5,2.903445,,,,,,,,,,,,,,,,,,,,,,,,,,,,7,86,-21,1,0,0,response3disk,4,3,9,1,0,0,rectangle,3,9,1,0,0,7,2,"[90,95,207,132,57,26,118,214,20,73,276,247,135,214,140,134,280,225,24,105]",3,9,1,0,0,0,22,21,21,158,1,,,,,,,,,,,,,,,,,,,,,
,,,,,,,,,,,,,,,,,,,,,,,,,,,,,,,,,,,,,,,,,,,5f3eae2b3dd0a010c0002168,5fb5da8a6693fd1d68ac9738,2020-11-19_04h38.25.830,Colour_Similarity_Experiment,2020.1.2,Win32,60,5fb5945709dec70f2d595766,,,,,,,,,,,,,,,,,,,,FF,,,,,,,,4,1.79824,,,,,,,,,,,,,,,,,,,,,,,,,,,,2,45,-81,1,0,0,response3disk,5,0,3,1,0,0,rectangle,0,3,1,0,0,7,5,"[90,95,207,132,57,26,118,214,20,73,276,247,135,214,140,134,280,225,24,105]",0,3,1,0,0,0,23,22,22,80,1,,,,,,,,,,,,,,,,,,,,,
,,,,,,,,,,,,,,,,,,,,,,,,,,,,,,,,,,,,,,,,,,,5f3eae2b3dd0a010c0002168,5fb5da8a6693fd1d68ac9738,2020-11-19_04h38.25.830,Colour_Similarity_Experiment,2020.1.2,Win32,60,5fb5945709dec70f2d595766,,,,,,,,,,,,,,,,,,,,PF,,,,,,,,7,1.16577,,,,,,,,,,,,,,,,,,,,,,,,,,,,4,56,100,1,0,0,response1disk,9,0,6,1,0,0,rectangle,33,-95,1,0,0,4,4,"[90,95,207,132,57,26,118,214,20,73,276,247,135,214,140,134,280,225,24,105]",0,3,1,0,0,0,24,23,23,75,1,response3disk_3,rectangle,,,,,,,,,,,,,,,,,,,
,,,,,,,,,,,,,,,,,,,,,,,,,,,,,,,,,,,,,,,,,,,5f3eae2b3dd0a010c0002168,5fb5da8a6693fd1d68ac9738,2020-11-19_04h38.25.830,Colour_Similarity_Experiment,2020.1.2,Win32,60,5fb5945709dec70f2d595766,,,,,,,,,,,,,,,,,,,,PF,,,,,,,,2,1.920985,,,,,,,,,,,,,,,,,,,,,,,,,,,,8,-92,-46,1,0,0,response5disk,9,3,-3,1,0,0,rectangle,3,-3,1,0,0,4,0,"[90,95,207,132,57,26,118,214,20,73,276,247,135,214,140,134,280,225,24,105]",3,-3,1,0,0,0,25,24,24,42,1,,,,,,,,,,,,,,,,,,,,,
,,,,,,,,,,,,,,,,,,,,,,,,,,,,,,,,,,,,,,,,,,,5f3eae2b3dd0a010c0002168,5fb5da8a6693fd1d68ac9738,2020-11-19_04h38.25.830,Colour_Similarity_Experiment,2020.1.2,Win32,60,5fb5945709dec70f2d595766,,,,,,,,,,,,,,,,,,,,PF,,,,,,,,4,4.27784,,,,,,,,,,,,,,,,,,,,,,,,,,,,4,22,-98,1,0,0,response3disk,6,21,6,1,0,0,rectangle,-78,-54,1,0,0,4,2,"[90,95,207,132,57,26,118,214,20,73,276,247,135,214,140,134,280,225,24,105]",8,-3,1,0,0,0,26,25,25,120,1,response5disk_3,rectangle,,,,,,,,,,,,,,,,,,,
,,,,,,,,,,,,,,,,,,,,,,,,,,,,,,,,,,,,,,,,,,,5f3eae2b3dd0a010c0002168,5fb5da8a6693fd1d68ac9738,2020-11-19_04h38.25.830,Colour_Similarity_Experiment,2020.1.2,Win32,60,5fb5945709dec70f2d595766,,,,,,,,,,,,,,,,,,,,FF,,,,,,,,1,1.87284,,,,,,,,,,,,,,,,,,,,,,,,,,,,6,-75,32,1,0,0,response7disk,5,-11,1,1,0,0,rectangle,-11,1,1,0,0,4,0,"[90,95,207,132,57,26,118,214,20,73,276,247,135,214,140,134,280,225,24,105]",-11,1,1,0,0,0,27,26,26,126,1,,,,,,,,,,,,,,,,,,,,,
,,,,,,,,,,,,,,,,,,,,,,,,,,,,,,,,,,,,,,,,,,,5f3eae2b3dd0a010c0002168,5fb5da8a6693fd1d68ac9738,2020-11-19_04h38.25.830,Colour_Similarity_Experiment,2020.1.2,Win32,60,5fb5945709dec70f2d595766,,,,,,,,,,,,,,,,,,,,PF,,,,,,,,0,2.348335,,,,,,,,,,,,,,,,,,,,,,,,,,,,1,-25,61,1,0,0,response7disk,1,-6,-8,1,0,0,rectangle,-6,-8,1,0,0,4,4,"[90,95,207,132,57,26,118,214,20,73,276,247,135,214,140,134,280,225,24,105]",-6,-8,1,0,0,0,28,27,27,76,1,,,,,,,,,,,,,,,,,,,,,
,,,,,,,,,,,,,,,,,,,,,,,,,,,,,,,,,,,,,,,,,,,5f3eae2b3dd0a010c0002168,5fb5da8a6693fd1d68ac9738,2020-11-19_04h38.25.830,Colour_Similarity_Experiment,2020.1.2,Win32,60,5fb5945709dec70f2d595766,,,,,,,,,,,,,,,,,,,,FF,,,,,,,,6,2.203095,,,,,,,,,,,,,,,,,,,,,,,,,,,,6,84,24,1,0,0,response1disk,4,-15,2,1,0,0,rectangle,-15,2,1,0,0,4,0,"[90,95,207,132,57,26,118,214,20,73,276,247,135,214,140,134,280,225,24,105]",-15,2,1,0,0,0,29,28,28,56,1,,,,,,,,,,,,,,,,,,,,,
,,,,,,,,,,,,,,,,,,,,,,,,,,,,,,,,,,,,,,,,,,,5f3eae2b3dd0a010c0002168,5fb5da8a6693fd1d68ac9738,2020-11-19_04h38.25.830,Colour_Similarity_Experiment,2020.1.2,Win32,60,5fb5945709dec70f2d595766,,,,,,,,,,,,,,,,,,,,FF,,,,,,,,1,1.48363,,,,,,,,,,,,,,,,,,,,,,,,,,,,9,-63,26,1,0,0,response7disk,9,0,7,1,0,0,rectangle,0,7,1,0,0,4,4,"[90,95,207,132,57,26,118,214,20,73,276,247,135,214,140,134,280,225,24,105]",0,7,1,0,0,0,30,29,29,17,1,,,,,,,,,,,,,,,,,,,,,
,,,,,,,,,,,,,,,,,,,,,,,,,,,,,,,,,,,,,,,,,,,5f3eae2b3dd0a010c0002168,5fb5da8a6693fd1d68ac9738,2020-11-19_04h38.25.830,Colour_Similarity_Experiment,2020.1.2,Win32,60,5fb5945709dec70f2d595766,,,,,,,,,,,,,,,,,,,,PF,,,,,,,,0,1.72437,,,,,,,,,,,,,,,,,,,,,,,,,,,,2,-30,65,1,0,0,response7disk,2,0,-5,1,0,0,rectangle,0,-5,1,0,0,4,4,"[90,95,207,132,57,26,118,214,20,73,276,247,135,214,140,134,280,225,24,105]",0,-5,1,0,0,0,31,30,30,14,1,,,,,,,,,,,,,,,,,,,,,
,,,,,,,,,,,,,,,,,,,,,,,,,,,,,,,,,,,,,,,,,,,5f3eae2b3dd0a010c0002168,5fb5da8a6693fd1d68ac9738,2020-11-19_04h38.25.830,Colour_Similarity_Experiment,2020.1.2,Win32,60,5fb5945709dec70f2d595766,,,,,,,,,,,,,,,,,,,,FF,,,,,,,,6,1.789145,,,,,,,,,,,,,,,,,,,,,,,,,,,,2,86,22,1,0,0,response1disk,8,-6,-2,1,0,0,rectangle,-6,-2,1,0,0,4,3,"[90,95,207,132,57,26,118,214,20,73,276,247,135,214,140,134,280,225,24,105]",-6,-2,1,0,0,0,32,31,31,62,1,,,,,,,,,,,,,,,,,,,,,
,,,,,,,,,,,,,,,,,,,,,,,,,,,,,,,,,,,,,,,,,,,5f3eae2b3dd0a010c0002168,5fb5da8a6693fd1d68ac9738,2020-11-19_04h38.25.830,Colour_Similarity_Experiment,2020.1.2,Win32,60,5fb5945709dec70f2d595766,,,,,,,,,,,,,,,,,,,,PF,,,,,,,,7,1.45476,,,,,,,,,,,,,,,,,,,,,,,,,,,,6,33,48,1,0,0,response1disk,1,7,-15,1,0,0,rectangle,7,-15,1,0,0,4,6,"[90,95,207,132,57,26,118,214,20,73,276,247,135,214,140,134,280,225,24,105]",7,-15,1,0,0,0,33,32,32,46,1,,,,,,,,,,,,,,,,,,,,,
,,,,,,,,,,,,,,,,,,,,,,,,,,,,,,,,,,,,,,,,,,,5f3eae2b3dd0a010c0002168,5fb5da8a6693fd1d68ac9738,2020-11-19_04h38.25.830,Colour_Similarity_Experiment,2020.1.2,Win32,60,5fb5945709dec70f2d595766,,,,,,,,,,,,,,,,,,,,FF,,,,,,,,7,1.481785,,,,,,,,,,,,,,,,,,,,,,,,,,,,5,24,60,1,0,0,response1disk,1,-1,8,1,0,0,rectangle,-1,8,1,0,0,4,3,"[90,95,207,132,57,26,118,214,20,73,276,247,135,214,140,134,280,225,24,105]",-1,8,1,0,0,0,34,33,33,131,1,,,,,,,,,,,,,,,,,,,,,
,,,,,,,,,,,,,,,,,,,,,,,,,,,,,,,,,,,,,,,,,,,5f3eae2b3dd0a010c0002168,5fb5da8a6693fd1d68ac9738,2020-11-19_04h38.25.830,Colour_Similarity_Experiment,2020.1.2,Win32,60,5fb5945709dec70f2d595766,,,,,,,,,,,,,,,,,,,,FF,,,,,,,,5,2.55475,,,,,,,,,,,,,,,,,,,,,,,,,,,,9,90,-53,1,0,0,response3disk,7,5,-4,1,0,0,rectangle,5,-4,1,0,0,4,2,"[90,95,207,132,57,26,118,214,20,73,276,247,135,214,140,134,280,225,24,105]",5,-4,1,0,0,0,35,34,34,100,1,,,,,,,,,,,,,,,,,,,,,
,,,,,,,,,,,,,,,,,,,,,,,,,,,,,,,,,,,,,,,,,,,5f3eae2b3dd0a010c0002168,5fb5da8a6693fd1d68ac9738,2020-11-19_04h38.25.830,Colour_Similarity_Experiment,2020.1.2,Win32,60,5fb5945709dec70f2d595766,,,,,,,,,,,,,,,,,,,,PF,,,,,,,,2,2.013445,,,,,,,,,,,,,,,,,,,,,,,,,,,,3,-84,-19,1,0,0,response5disk,2,-12,-4,1,0,0,rectangle,-12,-4,1,0,0,4,2,"[90,95,207,132,57,26,118,214,20,73,276,247,135,214,140,134,280,225,24,105]",-12,-4,1,0,0,0,36,35,35,36,1,,,,,,,,,,,,,,,,,,,,,
,,,,,,,,,,,,,,,,,,,,,,,,,,,,,,,,,,,,,,,,,,,5f3eae2b3dd0a010c0002168,5fb5da8a6693fd1d68ac9738,2020-11-19_04h38.25.830,Colour_Similarity_Experiment,2020.1.2,Win32,60,5fb5945709dec70f2d595766,,,,,,,,,,,,,,,,,,,,FF,,,,,,,,7,2.7135,,,,,,,,,,,,,,,,,,,,,,,,,,,,9,43,85,1,0,0,response1disk,2,-6,-2,1,0,0,rectangle,-6,-2,1,0,0,4,1,"[90,95,207,132,57,26,118,214,20,73,276,247,135,214,140,134,280,225,24,105]",-6,-2,1,0,0,0,37,36,36,11,1,,,,,,,,,,,,,,,,,,,,,
,,,,,,,,,,,,,,,,,,,,,,,,,,,,,,,,,,,,,,,,,,,5f3eae2b3dd0a010c0002168,5fb5da8a6693fd1d68ac9738,2020-11-19_04h38.25.830,Colour_Similarity_Experiment,2020.1.2,Win32,60,5fb5945709dec70f2d595766,,,,,,,,,,,,,,,,,,,,PF,,,,,,,,5,4.075465,,,,,,,,,,,,,,,,,,,,,,,,,,,,3,84,-59,1,0,0,response3disk,5,-14,8,1,0,0,rectangle,-14,8,1,0,0,4,1,"[90,95,207,132,57,26,118,214,20,73,276,247,135,214,140,134,280,225,24,105]",-14,8,1,0,0,0,38,37,37,66,1,,,,,,,,,,,,,,,,,,,,,
,,,,,,,,,,,,,,,,,,,,,,,,,,,,,,,,,,,,,,,,,,,5f3eae2b3dd0a010c0002168,5fb5da8a6693fd1d68ac9738,2020-11-19_04h38.25.830,Colour_Similarity_Experiment,2020.1.2,Win32,60,5fb5945709dec70f2d595766,,,,,,,,,,,,,,,,,,,,PF,,,,,,,,4,1.80865,,,,,,,,,,,,,,,,,,,,,,,,,,,,8,64,-91,1,0,0,response3disk,5,8,-1,1,0,0,rectangle,8,-1,1,0,0,4,3,"[90,95,207,132,57,26,118,214,20,73,276,247,135,214,140,134,280,225,24,105]",8,-1,1,0,0,0,39,38,38,98,1,,,,,,,,,,,,,,,,,,,,,
,,,,,,,,,,,,,,,,,,,,,,,,,,,,,,,,,,,,,,,,,,,5f3eae2b3dd0a010c0002168,5fb5da8a6693fd1d68ac9738,2020-11-19_04h38.25.830,Colour_Similarity_Experiment,2020.1.2,Win32,60,5fb5945709dec70f2d595766,,,,,,,,,,,,,,,,,,,,PF,,,,,,,,3,2.610145,,,,,,,,,,,,,,,,,,,,,,,,,,,,3,-40,-94,1,0,0,response5disk,4,-11,-2,1,0,0,rectangle,-11,-2,1,0,0,4,1,"[90,95,207,132,57,26,118,214,20,73,276,247,135,214,140,134,280,225,24,105]",-11,-2,1,0,0,0,40,39,39,30,1,,,,,,,,,,,,,,,,,,,,,
,,,,,,,,,,,,,,,,,,,,,,,,,,,,,,,,,,,,,,,,,,,5f3eae2b3dd0a010c0002168,5fb5da8a6693fd1d68ac9738,2020-11-19_04h38.25.830,Colour_Similarity_Experiment,2020.1.2,Win32,60,5fb5945709dec70f2d595766,,,,,,,,,,,,,,,,,,,,FF,,,,,,,,3,1.58208,,,,,,,,,,,,,,,,,,,,,,,,,,,,4,-32,-80,1,0,0,response5disk,3,1,-5,1,0,0,rectangle,1,-5,1,0,0,4,5,"[90,95,207,132,57,26,118,214,20,73,276,247,135,214,140,134,280,225,24,105]",1,-5,1,0,0,0,41,40,40,77,1,,,,,,,,,,,,,,,,,,,,,
,,,,,,,,,,,,,,,,,,,,,,,,,,,,,,,,,,,,,,,,,,,5f3eae2b3dd0a010c0002168,5fb5da8a6693fd1d68ac9738,2020-11-19_04h38.25.830,Colour_Similarity_Experiment,2020.1.2,Win32,60,5fb5945709dec70f2d595766,,,,,,,,,,,,,,,,,,,,PF,,,,,,,,6,1.85131,,,,,,,,,,,,,,,,,,,,,,,,,,,,2,72,32,1,0,0,response1disk,6,-11,-8,1,0,0,rectangle,-11,-8,1,0,0,4,5,"[90,95,207,132,57,26,118,214,20,73,276,247,135,214,140,134,280,225,24,105]",-11,-8,1,0,0,0,42,41,41,113,1,,,,,,,,,,,,,,,,,,,,,
,,,,,,,,,,,,,,,,,,,,,,,,,,,,,,,,,,,,,,,,,,,5f3eae2b3dd0a010c0002168,5fb5da8a6693fd1d68ac9738,2020-11-19_04h38.25.830,Colour_Similarity_Experiment,2020.1.2,Win32,60,5fb5945709dec70f2d595766,,,,,,,,,,,,,,,,,,,,PF,,,,,,,,5,2.40115,,,,,,,,,,,,,,,,,,,,,,,,,,,,8,84,-33,1,0,0,response3disk,7,7,0,1,0,0,rectangle,7,0,1,0,0,4,4,"[90,95,207,132,57,26,118,214,20,73,276,247,135,214,140,134,280,225,24,105]",7,0,1,0,0,0,43,42,42,23,1,,,,,,,,,,,,,,,,,,,,,
,,,,,,,,,,,,,,,,,,,,,,,,,,,,,,,,,,,,,,,,,,,5f3eae2b3dd0a010c0002168,5fb5da8a6693fd1d68ac9738,2020-11-19_04h38.25.830,Colour_Similarity_Experiment,2020.1.2,Win32,60,5fb5945709dec70f2d595766,,,,,,,,,,,,,,,,,,,,FF,,,,,,,,7,2.086515,,,,,,,,,,,,,,,,,,,,,,,,,,,,7,41,75,1,0,0,response1disk,3,26,-2,1,0,0,rectangle,26,-2,1,0,0,4,3,"[90,95,207,132,57,26,118,214,20,73,276,247,135,214,140,134,280,225,24,105]",26,-2,1,0,0,0,44,43,43,73,1,,,,,,,,,,,,,,,,,,,,,
,,,,,,,,,,,,,,,,,,,,,,,,,,,,,,,,,,,,,,,,,,,5f3eae2b3dd0a010c0002168,5fb5da8a6693fd1d68ac9738,2020-11-19_04h38.25.830,Colour_Similarity_Experiment,2020.1.2,Win32,60,5fb5945709dec70f2d595766,,,,,,,,,,,,,,,,,,,,PF,,,,,,,,3,1.77139,,,,,,,,,,,,,,,,,,,,,,,,,,,,2,-43,-87,1,0,0,response5disk,3,-7,8,1,0,0,rectangle,-7,8,1,0,0,4,1,"[90,95,207,132,57,26,118,214,20,73,276,247,135,214,140,134,280,225,24,105]",-7,8,1,0,0,0,45,44,44,69,1,,,,,,,,,,,,,,,,,,,,,
,,,,,,,,,,,,,,,,,,,,,,,,,,,,,,,,,,,,,,,,,,,5f3eae2b3dd0a010c0002168,5fb5da8a6693fd1d68ac9738,2020-11-19_04h38.25.830,Colour_Similarity_Experiment,2020.1.2,Win32,60,5fb5945709dec70f2d595766,,,,,,,,,,,,,,,,,,,,PF,,,,,,,,0,1.80839,,,,,,,,,,,,,,,,,,,,,,,,,,,,7,-31,80,1,0,0,response7disk,7,-2,-10,1,0,0,rectangle,-2,-10,1,0,0,4,3,"[90,95,207,132,57,26,118,214,20,73,276,247,135,214,140,134,280,225,24,105]",-2,-10,1,0,0,0,46,45,45,51,1,,,,,,,,,,,,,,,,,,,,,
,,,,,,,,,,,,,,,,,,,,,,,,,,,,,,,,,,,,,,,,,,,5f3eae2b3dd0a010c0002168,5fb5da8a6693fd1d68ac9738,2020-11-19_04h38.25.830,Colour_Similarity_Experiment,2020.1.2,Win32,60,5fb5945709dec70f2d595766,,,,,,,,,,,,,,,,,,,,FF,,,,,,,,1,1.47216,,,,,,,,,,,,,,,,,,,,,,,,,,,,3,-58,32,1,0,0,response7disk,3,-7,-3,1,0,0,rectangle,-7,-3,1,0,0,4,1,"[90,95,207,132,57,26,118,214,20,73,276,247,135,214,140,134,280,225,24,105]",-7,-3,1,0,0,0,47,46,46,68,1,,,,,,,,,,,,,,,,,,,,,
,,,,,,,,,,,,,,,,,,,,,,,,,,,,,,,,,,,,,,,,,,,5f3eae2b3dd0a010c0002168,5fb5da8a6693fd1d68ac9738,2020-11-19_04h38.25.830,Colour_Similarity_Experiment,2020.1.2,Win32,60,5fb5945709dec70f2d595766,,,,,,,,,,,,,,,,,,,,PF,,,,,,,,7,1.76763,,,,,,,,,,,,,,,,,,,,,,,,,,,,1,44,85,1,0,0,response1disk,7,5,10,1,0,0,rectangle,5,10,1,0,0,4,3,"[90,95,207,132,57,26,118,214,20,73,276,247,135,214,140,134,280,225,24,105]",5,10,1,0,0,0,48,47,47,150,1,,,,,,,,,,,,,,,,,,,,,
,,,,,,,,,,,,,,,,,,,,,,,,,,,,,,,,,,,,,,,,,,,5f3eae2b3dd0a010c0002168,5fb5da8a6693fd1d68ac9738,2020-11-19_04h38.25.830,Colour_Similarity_Experiment,2020.1.2,Win32,60,5fb5945709dec70f2d595766,,,,,,,,,,,,,,,,,,,,FF,,,,,,,,6,2.153745,,,,,,,,,,,,,,,,,,,,,,,,,,,,9,107,32,1,0,0,response1disk,3,-19,-11,1,0,0,rectangle,-19,-11,1,0,0,4,0,"[90,95,207,132,57,26,118,214,20,73,276,247,135,214,140,134,280,225,24,105]",-19,-11,1,0,0,0,49,48,48,141,1,,,,,,,,,,,,,,,,,,,,,
,,,,,,,,,,,,,,,,,,,,,,,,,,,,,,,,,,,,,,,,,,,5f3eae2b3dd0a010c0002168,5fb5da8a6693fd1d68ac9738,2020-11-19_04h38.25.830,Colour_Similarity_Experiment,2020.1.2,Win32,60,5fb5945709dec70f2d595766,,,,,,,,,,,,,,,,,,,,PF,,,,,,,,5,3.04123,,,,,,,,,,,,,,,,,,,,,,,,,,,,1,100,-21,1,0,0,response3disk,9,-1,-3,1,0,0,rectangle,-1,-3,1,0,0,4,6,"[90,95,207,132,57,26,118,214,20,73,276,247,135,214,140,134,280,225,24,105]",-1,-3,1,0,0,0,50,49,49,15,1,,,,,,,,,,,,,,,,,,,,,
,,,,,,,,,,,,,,,,,,,,,,,,,,,,,,,,,,,,,,,,,,,5f3eae2b3dd0a010c0002168,5fb5da8a6693fd1d68ac9738,2020-11-19_04h38.25.830,Colour_Similarity_Experiment,2020.1.2,Win32,60,5fb5945709dec70f2d595766,,,,,,,,,,,,,,,,,,,,FF,,,,,,,,5,2.67019,,,,,,,,,,,,,,,,,,,,,,,,,,,,4,71,-43,1,0,0,response3disk,8,5,1,1,0,0,rectangle,5,1,1,0,0,4,0,"[90,95,207,132,57,26,118,214,20,73,276,247,135,214,140,134,280,225,24,105]",5,1,1,0,0,0,51,50,50,35,1,,,,,,,,,,,,,,,,,,,,,
,,,,,,,,,,,,,,,,,,,,,,,,,,,,,,,,,,,,,,,,,,,5f3eae2b3dd0a010c0002168,5fb5da8a6693fd1d68ac9738,2020-11-19_04h38.25.830,Colour_Similarity_Experiment,2020.1.2,Win32,60,5fb5945709dec70f2d595766,,,,,,,,,,,,,,,,,,,,PF,,,,,,,,6,1.50744,,,,,,,,,,,,,,,,,,,,,,,,,,,,1,72,64,1,0,0,response1disk,5,4,0,1,0,0,rectangle,4,0,1,0,0,4,3,"[90,95,207,132,57,26,118,214,20,73,276,247,135,214,140,134,280,225,24,105]",4,0,1,0,0,0,52,51,51,28,1,,,,,,,,,,,,,,,,,,,,,
,,,,,,,,,,,,,,,,,,,,,,,,,,,,,,,,,,,,,,,,,,,5f3eae2b3dd0a010c0002168,5fb5da8a6693fd1d68ac9738,2020-11-19_04h38.25.830,Colour_Similarity_Experiment,2020.1.2,Win32,60,5fb5945709dec70f2d595766,,,,,,,,,,,,,,,,,,,,FF,,,,,,,,7,2.051605,,,,,,,,,,,,,,,,,,,,,,,,,,,,9,31,69,1,0,0,response1disk,4,-1,2,1,0,0,rectangle,-1,2,1,0,0,4,3,"[90,95,207,132,57,26,118,214,20,73,276,247,135,214,140,134,280,225,24,105]",-1,2,1,0,0,0,53,52,52,60,1,,,,,,,,,,,,,,,,,,,,,
,,,,,,,,,,,,,,,,,,,,,,,,,,,,,,,,,,,,,,,,,,,5f3eae2b3dd0a010c0002168,5fb5da8a6693fd1d68ac9738,2020-11-19_04h38.25.830,Colour_Similarity_Experiment,2020.1.2,Win32,60,5fb5945709dec70f2d595766,,,,,,,,,,,,,,,,,,,,FF,,,,,,,,1,2.77489,,,,,,,,,,,,,,,,,,,,,,,,,,,,3,-92,49,1,0,0,response7disk,4,-2,11,1,0,0,rectangle,-2,11,1,0,0,4,4,"[90,95,207,132,57,26,118,214,20,73,276,247,135,214,140,134,280,225,24,105]",-2,11,1,0,0,0,54,53,53,110,1,,,,,,,,,,,,,,,,,,,,,
,,,,,,,,,,,,,,,,,,,,,,,,,,,,,,,,,,,,,,,,,,,5f3eae2b3dd0a010c0002168,5fb5da8a6693fd1d68ac9738,2020-11-19_04h38.25.830,Colour_Similarity_Experiment,2020.1.2,Win32,60,5fb5945709dec70f2d595766,,,,,,,,,,,,,,,,,,,,PF,,,,,,,,7,1.43099,,,,,,,,,,,,,,,,,,,,,,,,,,,,2,33,63,1,0,0,response1disk,8,2,6,1,0,0,rectangle,2,6,1,0,0,4,0,"[90,95,207,132,57,26,118,214,20,73,276,247,135,214,140,134,280,225,24,105]",2,6,1,0,0,0,55,54,54,52,1,,,,,,,,,,,,,,,,,,,,,
,,,,,,,,,,,,,,,,,,,,,,,,,,,,,,,,,,,,,,,,,,,5f3eae2b3dd0a010c0002168,5fb5da8a6693fd1d68ac9738,2020-11-19_04h38.25.830,Colour_Similarity_Experiment,2020.1.2,Win32,60,5fb5945709dec70f2d595766,,,,,,,,,,,,,,,,,,,,FF,,,,,,,,7,1.496385,,,,,,,,,,,,,,,,,,,,,,,,,,,,4,24,56,1,0,0,response1disk,1,-5,-2,1,0,0,rectangle,-5,-2,1,0,0,4,7,"[90,95,207,132,57,26,118,214,20,73,276,247,135,214,140,134,280,225,24,105]",-5,-2,1,0,0,0,56,55,55,102,1,,,,,,,,,,,,,,,,,,,,,
,,,,,,,,,,,,,,,,,,,,,,,,,,,,,,,,,,,,,,,,,,,5f3eae2b3dd0a010c0002168,5fb5da8a6693fd1d68ac9738,2020-11-19_04h38.25.830,Colour_Similarity_Experiment,2020.1.2,Win32,60,5fb5945709dec70f2d595766,,,,,,,,,,,,,,,,,,,,FF,,,,,,,,7,1.196055,,,,,,,,,,,,,,,,,,,,,,,,,,,,8,24,55,1,0,0,response1disk,2,-10,9,1,0,0,rectangle,63,-90,1,0,0,4,4,"[90,95,207,132,57,26,118,214,20,73,276,247,135,214,140,134,280,225,24,105]",11,0,1,0,0,0,57,56,56,22,1,response3disk_3,rectangle,,,,,,,,,,,,,,,,,,,
,,,,,,,,,,,,,,,,,,,,,,,,,,,,,,,,,,,,,,,,,,,5f3eae2b3dd0a010c0002168,5fb5da8a6693fd1d68ac9738,2020-11-19_04h38.25.830,Colour_Similarity_Experiment,2020.1.2,Win32,60,5fb5945709dec70f2d595766,,,,,,,,,,,,,,,,,,,,PF,,,,,,,,5,1.999605,,,,,,,,,,,,,,,,,,,,,,,,,,,,9,97,-41,1,0,0,response3disk,6,8,1,1,0,0,rectangle,8,1,1,0,0,4,6,"[90,95,207,132,57,26,118,214,20,73,276,247,135,214,140,134,280,225,24,105]",8,1,1,0,0,0,58,57,57,148,1,,,,,,,,,,,,,,,,,,,,,
,,,,,,,,,,,,,,,,,,,,,,,,,,,,,,,,,,,,,,,,,,,5f3eae2b3dd0a010c0002168,5fb5da8a6693fd1d68ac9738,2020-11-19_04h38.25.830,Colour_Similarity_Experiment,2020.1.2,Win32,60,5fb5945709dec70f2d595766,,,,,,,,,,,,,,,,,,,,FF,,,,,,,,7,1.39218,,,,,,,,,,,,,,,,,,,,,,,,,,,,4,24,77,1,0,0,response1disk,2,3,8,1,0,0,rectangle,3,8,1,0,0,4,2,"[90,95,207,132,57,26,118,214,20,73,276,247,135,214,140,134,280,225,24,105]",3,8,1,0,0,0,59,58,58,13,1,,,,,,,,,,,,,,,,,,,,,
,,,,,,,,,,,,,,,,,,,,,,,,,,,,,,,,,,,,,,,,,,,5f3eae2b3dd0a010c0002168,5fb5da8a6693fd1d68ac9738,2020-11-19_04h38.25.830,Colour_Similarity_Experiment,2020.1.2,Win32,60,5fb5945709dec70f2d595766,,,,,,,,,,,,,,,,,,,,PF,,,,,,,,6,3.57485,,,,,,,,,,,,,,,,,,,,,,,,,,,,7,83,45,1,0,0,response1disk,9,1,13,1,0,0,rectangle,1,13,1,0,0,4,7,"[90,95,207,132,57,26,118,214,20,73,276,247,135,214,140,134,280,225,24,105]",1,13,1,0,0,0,60,59,59,10,1,,,,,,,,,,,,,,,,,,,,,
,,,,,,,,,,,,,,,,,,,,,,,,,,,,,,,,,,,,,,,,,,,5f3eae2b3dd0a010c0002168,5fb5da8a6693fd1d68ac9738,2020-11-19_04h38.25.830,Colour_Similarity_Experiment,2020.1.2,Win32,60,5fb5945709dec70f2d595766,,,,,,,,,,,,,,,,,,,,PF,,,,,,,,7,1.46019,,,,,,,,,,,,,,,,,,,,,,,,,,,,5,37,62,1,0,0,response1disk,2,14,15,1,0,0,rectangle,14,15,1,0,0,4,5,"[90,95,207,132,57,26,118,214,20,73,276,247,135,214,140,134,280,225,24,105]",14,15,1,0,0,0,61,60,60,129,1,,,,,,,,,,,,,,,,,,,,,
,,,,,,,,,,,,,,,,,,,,,,,,,,,,,,,,,,,,,,,,,,,5f3eae2b3dd0a010c0002168,5fb5da8a6693fd1d68ac9738,2020-11-19_04h38.25.830,Colour_Similarity_Experiment,2020.1.2,Win32,60,5fb5945709dec70f2d595766,,,,,,,,,,,,,,,,,,,,FF,,,,,,,,0,1.80473,,,,,,,,,,,,,,,,,,,,,,,,,,,,7,-35,68,1,0,0,response7disk,7,-14,5,1,0,0,rectangle,-14,5,1,0,0,4,1,"[90,95,207,132,57,26,118,214,20,73,276,247,135,214,140,134,280,225,24,105]",-14,5,1,0,0,0,62,61,61,34,1,,,,,,,,,,,,,,,,,,,,,
,,,,,,,,,,,,,,,,,,,,,,,,,,,,,,,,,,,,,,,,,,,5f3eae2b3dd0a010c0002168,5fb5da8a6693fd1d68ac9738,2020-11-19_04h38.25.830,Colour_Similarity_Experiment,2020.1.2,Win32,60,5fb5945709dec70f2d595766,,,,,,,,,,,,,,,,,,,,PF,,,,,,,,7,1.55564,,,,,,,,,,,,,,,,,,,,,,,,,,,,2,24,94,1,0,0,response1disk,1,-1,15,1,0,0,rectangle,-1,15,1,0,0,4,1,"[90,95,207,132,57,26,118,214,20,73,276,247,135,214,140,134,280,225,24,105]",-1,15,1,0,0,0,63,62,62,9,1,,,,,,,,,,,,,,,,,,,,,
,,,,,,,,,,,,,,,,,,,,,,,,,,,,,,,,,,,,,,,,,,,5f3eae2b3dd0a010c0002168,5fb5da8a6693fd1d68ac9738,2020-11-19_04h38.25.830,Colour_Similarity_Experiment,2020.1.2,Win32,60,5fb5945709dec70f2d595766,,,,,,,,,,,,,,,,,,,,PF,,,,,,,,7,1.52787,,,,,,,,,,,,,,,,,,,,,,,,,,,,7,36,79,1,0,0,response1disk,1,-2,7,1,0,0,rectangle,-2,7,1,0,0,4,0,"[90,95,207,132,57,26,118,214,20,73,276,247,135,214,140,134,280,225,24,105]",-2,7,1,0,0,0,64,63,63,53,1,,,,,,,,,,,,,,,,,,,,,
,,,,,,,,,,,,,,,,,,,,,,,,,,,,,,,,,,,,,,,,,,,5f3eae2b3dd0a010c0002168,5fb5da8a6693fd1d68ac9738,2020-11-19_04h38.25.830,Colour_Similarity_Experiment,2020.1.2,Win32,60,5fb5945709dec70f2d595766,,,,,,,,,,,,,,,,,,,,FF,,,,,,,,0,1.859585,,,,,,,,,,,,,,,,,,,,,,,,,,,,8,-48,64,1,0,0,response7disk,8,-9,4,1,0,0,rectangle,-9,4,1,0,0,4,1,"[90,95,207,132,57,26,118,214,20,73,276,247,135,214,140,134,280,225,24,105]",-9,4,1,0,0,0,65,64,64,48,1,,,,,,,,,,,,,,,,,,,,,
,,,,,,,,,,,,,,,,,,,,,,,,,,,,,,,,,,,,,,,,,,,5f3eae2b3dd0a010c0002168,5fb5da8a6693fd1d68ac9738,2020-11-19_04h38.25.830,Colour_Similarity_Experiment,2020.1.2,Win32,60,5fb5945709dec70f2d595766,,,,,,,,,,,,,,,,,,,,FF,,,,,,,,4,2.28425,,,,,,,,,,,,,,,,,,,,,,,,,,,,7,67,-91,1,0,0,response3disk,9,23,-13,1,0,0,rectangle,23,-13,1,0,0,4,6,"[90,95,207,132,57,26,118,214,20,73,276,247,135,214,140,134,280,225,24,105]",23,-13,1,0,0,0,66,65,65,155,1,,,,,,,,,,,,,,,,,,,,,
,,,,,,,,,,,,,,,,,,,,,,,,,,,,,,,,,,,,,,,,,,,5f3eae2b3dd0a010c0002168,5fb5da8a6693fd1d68ac9738,2020-11-19_04h38.25.830,Colour_Similarity_Experiment,2020.1.2,Win32,60,5fb5945709dec70f2d595766,,,,,,,,,,,,,,,,,,,,PF,,,,,,,,7,2.970195,,,,,,,,,,,,,,,,,,,,,,,,,,,,2,54,94,1,0,0,response1disk,5,0,-11,1,0,0,rectangle,0,-11,1,0,0,4,5,"[90,95,207,132,57,26,118,214,20,73,276,247,135,214,140,134,280,225,24,105]",0,-11,1,0,0,0,67,66,66,147,1,,,,,,,,,,,,,,,,,,,,,
,,,,,,,,,,,,,,,,,,,,,,,,,,,,,,,,,,,,,,,,,,,5f3eae2b3dd0a010c0002168,5fb5da8a6693fd1d68ac9738,2020-11-19_04h38.25.830,Colour_Similarity_Experiment,2020.1.2,Win32,60,5fb5945709dec70f2d595766,,,,,,,,,,,,,,,,,,,,PF,,,,,,,,5,9.77036,,,,,,,,,,,,,,,,,,,,,,,,,,,,5,99,-46,1,0,0,response3disk,9,-10,2,1,0,0,rectangle,-10,2,1,0,0,4,5,"[90,95,207,132,57,26,118,214,20,73,276,247,135,214,140,134,280,225,24,105]",-10,2,1,0,0,0,68,67,67,136,1,,,,,,,,,,,,,,,,,,,,,
,,,,,,,,,,,,,,,,,,,,,,,,,,,,,,,,,,,,,,,,,,,5f3eae2b3dd0a010c0002168,5fb5da8a6693fd1d68ac9738,2020-11-19_04h38.25.830,Colour_Similarity_Experiment,2020.1.2,Win32,60,5fb5945709dec70f2d595766,,,,,,,,,,,,,,,,,,,,PF,,,,,,,,4,3.784,,,,,,,,,,,,,,,,,,,,,,,,,,,,5,40,-99,1,0,0,response3disk,4,-13,-4,1,0,0,rectangle,-13,-4,1,0,0,4,3,"[90,95,207,132,57,26,118,214,20,73,276,247,135,214,140,134,280,225,24,105]",-13,-4,1,0,0,0,69,68,68,54,1,,,,,,,,,,,,,,,,,,,,,
,,,,,,,,,,,,,,,,,,,,,,,,,,,,,,,,,,,,,,,,,,,5f3eae2b3dd0a010c0002168,5fb5da8a6693fd1d68ac9738,2020-11-19_04h38.25.830,Colour_Similarity_Experiment,2020.1.2,Win32,60,5fb5945709dec70f2d595766,,,,,,,,,,,,,,,,,,,,FF,,,,,,,,0,1.465195,,,,,,,,,,,,,,,,,,,,,,,,,,,,2,-23,94,1,0,0,response7disk,2,1,-3,1,0,0,rectangle,1,-3,1,0,0,4,7,"[90,95,207,132,57,26,118,214,20,73,276,247,135,214,140,134,280,225,24,105]",1,-3,1,0,0,0,70,69,69,142,1,,,,,,,,,,,,,,,,,,,,,
,,,,,,,,,,,,,,,,,,,,,,,,,,,,,,,,,,,,,,,,,,,5f3eae2b3dd0a010c0002168,5fb5da8a6693fd1d68ac9738,2020-11-19_04h38.25.830,Colour_Similarity_Experiment,2020.1.2,Win32,60,5fb5945709dec70f2d595766,,,,,,,,,,,,,,,,,,,,PF,,,,,,,,7,1.746175,,,,,,,,,,,,,,,,,,,,,,,,,,,,4,52,84,1,0,0,response1disk,2,8,-7,1,0,0,rectangle,8,-7,1,0,0,4,7,"[90,95,207,132,57,26,118,214,20,73,276,247,135,214,140,134,280,225,24,105]",8,-7,1,0,0,0,71,70,70,108,1,,,,,,,,,,,,,,,,,,,,,
,,,,,,,,,,,,,,,,,,,,,,,,,,,,,,,,,,,,,,,,,,,5f3eae2b3dd0a010c0002168,5fb5da8a6693fd1d68ac9738,2020-11-19_04h38.25.830,Colour_Similarity_Experiment,2020.1.2,Win32,60,5fb5945709dec70f2d595766,,,,,,,,,,,,,,,,,,,,FF,,,,,,,,7,1.145095,,,,,,,,,,,,,,,,,,,,,,,,,,,,1,50,78,1,0,0,response1disk,4,-16,-5,1,0,0,rectangle,-16,-5,1,0,0,4,6,"[90,95,207,132,57,26,118,214,20,73,276,247,135,214,140,134,280,225,24,105]",-16,-5,1,0,0,0,72,71,71,135,1,,,,,,,,,,,,,,,,,,,,,
,,,,,,,,,,,,,,,,,,,,,,,,,,,,,,,,,,,,,,,,,,,5f3eae2b3dd0a010c0002168,5fb5da8a6693fd1d68ac9738,2020-11-19_04h38.25.830,Colour_Similarity_Experiment,2020.1.2,Win32,60,5fb5945709dec70f2d595766,,,,,,,,,,,,,,,,,,,,PF,,,,,,,,7,1.192685,,,,,,,,,,,,,,,,,,,,,,,,,,,,3,31,78,1,0,0,response1disk,7,8,6,1,0,0,rectangle,31,-91,1,0,0,4,4,"[90,95,207,132,57,26,118,214,20,73,276,247,135,214,140,134,280,225,24,105]",12,-3,1,0,0,0,73,72,72,41,1,response3disk_3,rectangle,,,,,,,,,,,,,,,,,,,
,,,,,,,,,,,,,,,,,,,,,,,,,,,,,,,,,,,,,,,,,,,5f3eae2b3dd0a010c0002168,5fb5da8a6693fd1d68ac9738,2020-11-19_04h38.25.830,Colour_Similarity_Experiment,2020.1.2,Win32,60,5fb5945709dec70f2d595766,,,,,,,,,,,,,,,,,,,,PF,,,,,,,,6,1.85255,,,,,,,,,,,,,,,,,,,,,,,,,,,,3,47,42,1,0,0,response1disk,8,25,10,1,0,0,rectangle,25,10,1,0,0,4,2,"[90,95,207,132,57,26,118,214,20,73,276,247,135,214,140,134,280,225,24,105]",25,10,1,0,0,0,74,73,73,3,1,,,,,,,,,,,,,,,,,,,,,
,,,,,,,,,,,,,,,,,,,,,,,,,,,,,,,,,,,,,,,,,,,5f3eae2b3dd0a010c0002168,5fb5da8a6693fd1d68ac9738,2020-11-19_04h38.25.830,Colour_Similarity_Experiment,2020.1.2,Win32,60,5fb5945709dec70f2d595766,,,,,,,,,,,,,,,,,,,,FF,,,,,,,,0,1.612135,,,,,,,,,,,,,,,,,,,,,,,,,,,,6,-44,79,1,0,0,response7disk,6,-4,10,1,0,0,rectangle,-4,10,1,0,0,4,7,"[90,95,207,132,57,26,118,214,20,73,276,247,135,214,140,134,280,225,24,105]",-4,10,1,0,0,0,75,74,74,91,1,,,,,,,,,,,,,,,,,,,,,
,,,,,,,,,,,,,,,,,,,,,,,,,,,,,,,,,,,,,,,,,,,5f3eae2b3dd0a010c0002168,5fb5da8a6693fd1d68ac9738,2020-11-19_04h38.25.830,Colour_Similarity_Experiment,2020.1.2,Win32,60,5fb5945709dec70f2d595766,,,,,,,,,,,,,,,,,,,,PF,,,,,,,,7,1.841655,,,,,,,,,,,,,,,,,,,,,,,,,,,,8,46,71,1,0,0,response1disk,2,8,3,1,0,0,rectangle,8,3,1,0,0,4,4,"[90,95,207,132,57,26,118,214,20,73,276,247,135,214,140,134,280,225,24,105]",8,3,1,0,0,0,76,75,75,83,1,,,,,,,,,,,,,,,,,,,,,
,,,,,,,,,,,,,,,,,,,,,,,,,,,,,,,,,,,,,,,,,,,5f3eae2b3dd0a010c0002168,5fb5da8a6693fd1d68ac9738,2020-11-19_04h38.25.830,Colour_Similarity_Experiment,2020.1.2,Win32,60,5fb5945709dec70f2d595766,,,,,,,,,,,,,,,,,,,,FF,,,,,,,,2,2.37185,,,,,,,,,,,,,,,,,,,,,,,,,,,,8,-105,-29,1,0,0,response5disk,9,-12,9,1,0,0,rectangle,-12,9,1,0,0,4,6,"[90,95,207,132,57,26,118,214,20,73,276,247,135,214,140,134,280,225,24,105]",-12,9,1,0,0,0,77,76,76,105,1,,,,,,,,,,,,,,,,,,,,,
,,,,,,,,,,,,,,,,,,,,,,,,,,,,,,,,,,,,,,,,,,,5f3eae2b3dd0a010c0002168,5fb5da8a6693fd1d68ac9738,2020-11-19_04h38.25.830,Colour_Similarity_Experiment,2020.1.2,Win32,60,5fb5945709dec70f2d595766,,,,,,,,,,,,,,,,,,,,PF,,,,,,,,0,1.64499,,,,,,,,,,,,,,,,,,,,,,,,,,,,6,-54,76,1,0,0,response7disk,6,-5,6,1,0,0,rectangle,-5,6,1,0,0,4,2,"[90,95,207,132,57,26,118,214,20,73,276,247,135,214,140,134,280,225,24,105]",-5,6,1,0,0,0,78,77,77,0,1,,,,,,,,,,,,,,,,,,,,,
,,,,,,,,,,,,,,,,,,,,,,,,,,,,,,,,,,,,,,,,,,,5f3eae2b3dd0a010c0002168,5fb5da8a6693fd1d68ac9738,2020-11-19_04h38.25.830,Colour_Similarity_Experiment,2020.1.2,Win32,60,5fb5945709dec70f2d595766,,,,,,,,,,,,,,,,,,,,PF,,,,,,,,3,1.72756,,,,,,,,,,,,,,,,,,,,,,,,,,,,5,-41,-98,1,0,0,response5disk,3,-2,-15,1,0,0,rectangle,-2,-15,1,0,0,4,0,"[90,95,207,132,57,26,118,214,20,73,276,247,135,214,140,134,280,225,24,105]",-2,-15,1,0,0,0,79,78,78,109,1,,,,,,,,,,,,,,,,,,,,,
,,,,,,,,,,,,,,,,,,,,,,,,,,,,,,,,,,,,,,,,,,,5f3eae2b3dd0a010c0002168,5fb5da8a6693fd1d68ac9738,2020-11-19_04h38.25.830,Colour_Similarity_Experiment,2020.1.2,Win32,60,5fb5945709dec70f2d595766,,,,,,,,,,,,,,,,,,,,PF,,,,,,,,7,1.38579,,,,,,,,,,,,,,,,,,,,,,,,,,,,7,48,119,1,0,0,response1disk,2,3,3,1,0,0,rectangle,3,3,1,0,0,4,2,"[90,95,207,132,57,26,118,214,20,73,276,247,135,214,140,134,280,225,24,105]",3,3,1,0,0,0,80,79,79,32,1,,,,,,,,,,,,,,,,,,,,,
,,,,,,,,,,,,,,,,,,,,,,,,,,,,,,,,,,,,,,,,,,,5f3eae2b3dd0a010c0002168,5fb5da8a6693fd1d68ac9738,2020-11-19_04h38.25.830,Colour_Similarity_Experiment,2020.1.2,Win32,60,5fb5945709dec70f2d595766,,,,,,,,,,,,,,,,,,,,FF,,,,,,,,1,2.375155,,,,,,,,,,,,,,,,,,,,,,,,,,,,1,-92,32,1,0,0,response7disk,1,7,-2,1,0,0,rectangle,7,-2,1,0,0,4,4,"[90,95,207,132,57,26,118,214,20,73,276,247,135,214,140,134,280,225,24,105]",7,-2,1,0,0,0,81,80,80,151,1,,,,,,,,,,,,,,,,,,,,,
,,,,,,,,,,,,,,,,,,,,,,,,,,,,,,,,,,,,,,,,,,,5f3eae2b3dd0a010c0002168,5fb5da8a6693fd1d68ac9738,2020-11-19_04h38.25.830,Colour_Similarity_Experiment,2020.1.2,Win32,60,5fb5945709dec70f2d595766,,,,,,,,,,,,,,,,,,,,PF,,,,,,,,4,2.340585,,,,,,,,,,,,,,,,,,,,,,,,,,,,6,31,-84,1,0,0,response3disk,4,10,-2,1,0,0,rectangle,10,-2,1,0,0,4,0,"[90,95,207,132,57,26,118,214,20,73,276,247,135,214,140,134,280,225,24,105]",10,-2,1,0,0,0,82,81,81,33,1,,,,,,,,,,,,,,,,,,,,,
,,,,,,,,,,,,,,,,,,,,,,,,,,,,,,,,,,,,,,,,,,,5f3eae2b3dd0a010c0002168,5fb5da8a6693fd1d68ac9738,2020-11-19_04h38.25.830,Colour_Similarity_Experiment,2020.1.2,Win32,60,5fb5945709dec70f2d595766,,,,,,,,,,,,,,,,,,,,PF,,,,,,,,7,1.883865,,,,,,,,,,,,,,,,,,,,,,,,,,,,1,61,96,1,0,0,response1disk,3,-8,-5,1,0,0,rectangle,-8,-5,1,0,0,4,4,"[90,95,207,132,57,26,118,214,20,73,276,247,135,214,140,134,280,225,24,105]",-8,-5,1,0,0,0,83,82,82,1,1,,,,,,,,,,,,,,,,,,,,,
,,,,,,,,,,,,,,,,,,,,,,,,,,,,,,,,,,,,,,,,,,,5f3eae2b3dd0a010c0002168,5fb5da8a6693fd1d68ac9738,2020-11-19_04h38.25.830,Colour_Similarity_Experiment,2020.1.2,Win32,60,5fb5945709dec70f2d595766,,,,,,,,,,,,,,,,,,,,FF,,,,,,,,7,1.504345,,,,,,,,,,,,,,,,,,,,,,,,,,,,1,37,68,1,0,0,response1disk,2,-1,0,1,0,0,rectangle,-1,0,1,0,0,4,3,"[90,95,207,132,57,26,118,214,20,73,276,247,135,214,140,134,280,225,24,105]",-1,0,1,0,0,0,84,83,83,2,1,,,,,,,,,,,,,,,,,,,,,
,,,,,,,,,,,,,,,,,,,,,,,,,,,,,,,,,,,,,,,,,,,5f3eae2b3dd0a010c0002168,5fb5da8a6693fd1d68ac9738,2020-11-19_04h38.25.830,Colour_Similarity_Experiment,2020.1.2,Win32,60,5fb5945709dec70f2d595766,,,,,,,,,,,,,,,,,,,,PF,,,,,,,,6,1.59114,,,,,,,,,,,,,,,,,,,,,,,,,,,,9,96,30,1,0,0,response1disk,1,8,6,1,0,0,rectangle,8,6,1,0,0,4,0,"[90,95,207,132,57,26,118,214,20,73,276,247,135,214,140,134,280,225,24,105]",8,6,1,0,0,0,85,84,84,74,1,,,,,,,,,,,,,,,,,,,,,
,,,,,,,,,,,,,,,,,,,,,,,,,,,,,,,,,,,,,,,,,,,5f3eae2b3dd0a010c0002168,5fb5da8a6693fd1d68ac9738,2020-11-19_04h38.25.830,Colour_Similarity_Experiment,2020.1.2,Win32,60,5fb5945709dec70f2d595766,,,,,,,,,,,,,,,,,,,,PF,,,,,,,,7,2.4906,,,,,,,,,,,,,,,,,,,,,,,,,,,,1,41,67,1,0,0,response1disk,2,5,6,1,0,0,rectangle,5,6,1,0,0,4,5,"[90,95,207,132,57,26,118,214,20,73,276,247,135,214,140,134,280,225,24,105]",5,6,1,0,0,0,86,85,85,24,1,,,,,,,,,,,,,,,,,,,,,
,,,,,,,,,,,,,,,,,,,,,,,,,,,,,,,,,,,,,,,,,,,5f3eae2b3dd0a010c0002168,5fb5da8a6693fd1d68ac9738,2020-11-19_04h38.25.830,Colour_Similarity_Experiment,2020.1.2,Win32,60,5fb5945709dec70f2d595766,,,,,,,,,,,,,,,,,,,,FF,,,,,,,,3,2.06111,,,,,,,,,,,,,,,,,,,,,,,,,,,,6,-43,-76,1,0,0,response5disk,7,-10,-4,1,0,0,rectangle,-10,-4,1,0,0,4,1,"[90,95,207,132,57,26,118,214,20,73,276,247,135,214,140,134,280,225,24,105]",-10,-4,1,0,0,0,87,86,86,18,1,,,,,,,,,,,,,,,,,,,,,
,,,,,,,,,,,,,,,,,,,,,,,,,,,,,,,,,,,,,,,,,,,5f3eae2b3dd0a010c0002168,5fb5da8a6693fd1d68ac9738,2020-11-19_04h38.25.830,Colour_Similarity_Experiment,2020.1.2,Win32,60,5fb5945709dec70f2d595766,,,,,,,,,,,,,,,,,,,,FF,,,,,,,,7,1.929635,,,,,,,,,,,,,,,,,,,,,,,,,,,,1,52,86,1,0,0,response1disk,6,8,5,1,0,0,rectangle,8,5,1,0,0,4,4,"[90,95,207,132,57,26,118,214,20,73,276,247,135,214,140,134,280,225,24,105]",8,5,1,0,0,0,88,87,87,58,1,,,,,,,,,,,,,,,,,,,,,
,,,,,,,,,,,,,,,,,,,,,,,,,,,,,,,,,,,,,,,,,,,5f3eae2b3dd0a010c0002168,5fb5da8a6693fd1d68ac9738,2020-11-19_04h38.25.830,Colour_Similarity_Experiment,2020.1.2,Win32,60,5fb5945709dec70f2d595766,,,,,,,,,,,,,,,,,,,,PF,,,,,,,,3,1.806535,,,,,,,,,,,,,,,,,,,,,,,,,,,,7,-50,-83,1,0,0,response5disk,6,-7,-6,1,0,0,rectangle,-7,-6,1,0,0,4,4,"[90,95,207,132,57,26,118,214,20,73,276,247,135,214,140,134,280,225,24,105]",-7,-6,1,0,0,0,89,88,88,29,1,,,,,,,,,,,,,,,,,,,,,
,,,,,,,,,,,,,,,,,,,,,,,,,,,,,,,,,,,,,,,,,,,5f3eae2b3dd0a010c0002168,5fb5da8a6693fd1d68ac9738,2020-11-19_04h38.25.830,Colour_Similarity_Experiment,2020.1.2,Win32,60,5fb5945709dec70f2d595766,,,,,,,,,,,,,,,,,,,,PF,,,,,,,,4,1.885365,,,,,,,,,,,,,,,,,,,,,,,,,,,,6,36,-88,1,0,0,response3disk,3,3,8,1,0,0,rectangle,-29,94,1,0,0,0,0,"[90,95,207,132,57,26,118,214,20,73,276,247,135,214,140,134,280,225,24,105]",-1,-12,1,0,0,0,90,89,89,26,1,response7disk_3,rectangle,,,,,,,,,,,,,,,,,,,
,,,,,,,,,,,,,,,,,,,,,,,,,,,,,,,,,,,,,,,,,,,5f3eae2b3dd0a010c0002168,5fb5da8a6693fd1d68ac9738,2020-11-19_04h38.25.830,Colour_Similarity_Experiment,2020.1.2,Win32,60,5fb5945709dec70f2d595766,,,,,,,,,,,,,,,,,,,,FF,,,,,,,,4,2.29889,,,,,,,,,,,,,,,,,,,,,,,,,,,,5,51,-88,1,0,0,response3disk,8,15,2,1,0,0,rectangle,15,2,1,0,0,0,7,"[90,95,207,132,57,26,118,214,20,73,276,247,135,214,140,134,280,225,24,105]",15,2,1,0,0,0,91,90,90,16,1,,,,,,,,,,,,,,,,,,,,,
,,,,,,,,,,,,,,,,,,,,,,,,,,,,,,,,,,,,,,,,,,,5f3eae2b3dd0a010c0002168,5fb5da8a6693fd1d68ac9738,2020-11-19_04h38.25.830,Colour_Similarity_Experiment,2020.1.2,Win32,60,5fb5945709dec70f2d595766,,,,,,,,,,,,,,,,,,,,PF,,,,,,,,2,2.5756,,,,,,,,,,,,,,,,,,,,,,,,,,,,5,-71,-36,1,0,0,response5disk,6,0,3,1,0,0,rectangle,0,3,1,0,0,0,5,"[90,95,207,132,57,26,118,214,20,73,276,247,135,214,140,134,280,225,24,105]",0,3,1,0,0,0,92,91,91,103,1,,,,,,,,,,,,,,,,,,,,,
,,,,,,,,,,,,,,,,,,,,,,,,,,,,,,,,,,,,,,,,,,,5f3eae2b3dd0a010c0002168,5fb5da8a6693fd1d68ac9738,2020-11-19_04h38.25.830,Colour_Similarity_Experiment,2020.1.2,Win32,60,5fb5945709dec70f2d595766,,,,,,,,,,,,,,,,,,,,FF,,,,,,,,5,2.01997,,,,,,,,,,,,,,,,,,,,,,,,,,,,4,87,-45,1,0,0,response3disk,5,3,-4,1,0,0,rectangle,3,-4,1,0,0,0,0,"[90,95,207,132,57,26,118,214,20,73,276,247,135,214,140,134,280,225,24,105]",3,-4,1,0,0,0,93,92,92,116,1,,,,,,,,,,,,,,,,,,,,,
,,,,,,,,,,,,,,,,,,,,,,,,,,,,,,,,,,,,,,,,,,,5f3eae2b3dd0a010c0002168,5fb5da8a6693fd1d68ac9738,2020-11-19_04h38.25.830,Colour_Similarity_Experiment,2020.1.2,Win32,60,5fb5945709dec70f2d595766,,,,,,,,,,,,,,,,,,,,PF,,,,,,,,7,1.548125,,,,,,,,,,,,,,,,,,,,,,,,,,,,1,50,82,1,0,0,response1disk,4,3,6,1,0,0,rectangle,3,6,1,0,0,0,3,"[90,95,207,132,57,26,118,214,20,73,276,247,135,214,140,134,280,225,24,105]",3,6,1,0,0,0,94,93,93,139,1,,,,,,,,,,,,,,,,,,,,,
,,,,,,,,,,,,,,,,,,,,,,,,,,,,,,,,,,,,,,,,,,,5f3eae2b3dd0a010c0002168,5fb5da8a6693fd1d68ac9738,2020-11-19_04h38.25.830,Colour_Similarity_Experiment,2020.1.2,Win32,60,5fb5945709dec70f2d595766,,,,,,,,,,,,,,,,,,,,PF,,,,,,,,7,1.60148,,,,,,,,,,,,,,,,,,,,,,,,,,,,9,32,71,1,0,0,response1disk,3,-4,-2,1,0,0,rectangle,76,-34,1,0,0,5,5,"[90,95,207,132,57,26,118,214,20,73,276,247,135,214,140,134,280,225,24,105]",9,0,1,0,0,0,95,94,94,119,1,response3disk_3,rectangle,,,,,,,,,,,,,,,,,,,
,,,,,,,,,,,,,,,,,,,,,,,,,,,,,,,,,,,,,,,,,,,5f3eae2b3dd0a010c0002168,5fb5da8a6693fd1d68ac9738,2020-11-19_04h38.25.830,Colour_Similarity_Experiment,2020.1.2,Win32,60,5fb5945709dec70f2d595766,,,,,,,,,,,,,,,,,,,,FF,,,,,,,,7,1.533305,,,,,,,,,,,,,,,,,,,,,,,,,,,,2,55,80,1,0,0,response1disk,6,-12,6,1,0,0,rectangle,-12,6,1,0,0,5,1,"[90,95,207,132,57,26,118,214,20,73,276,247,135,214,140,134,280,225,24,105]",-12,6,1,0,0,0,96,95,95,40,1,,,,,,,,,,,,,,,,,,,,,
,,,,,,,,,,,,,,,,,,,,,,,,,,,,,,,,,,,,,,,,,,,5f3eae2b3dd0a010c0002168,5fb5da8a6693fd1d68ac9738,2020-11-19_04h38.25.830,Colour_Similarity_Experiment,2020.1.2,Win32,60,5fb5945709dec70f2d595766,,,,,,,,,,,,,,,,,,,,FF,,,,,,,,5,2.79527,,,,,,,,,,,,,,,,,,,,,,,,,,,,4,98,-21,1,0,0,response3disk,6,13,-5,1,0,0,rectangle,13,-5,1,0,0,5,2,"[90,95,207,132,57,26,118,214,20,73,276,247,135,214,140,134,280,225,24,105]",13,-5,1,0,0,0,97,96,96,122,1,,,,,,,,,,,,,,,,,,,,,
,,,,,,,,,,,,,,,,,,,,,,,,,,,,,,,,,,,,,,,,,,,5f3eae2b3dd0a010c0002168,5fb5da8a6693fd1d68ac9738,2020-11-19_04h38.25.830,Colour_Similarity_Experiment,2020.1.2,Win32,60,5fb5945709dec70f2d595766,,,,,,,,,,,,,,,,,,,,FF,,,,,,,,5,2.13937,,,,,,,,,,,,,,,,,,,,,,,,,,,,2,89,-29,1,0,0,response3disk,9,8,0,1,0,0,rectangle,8,0,1,0,0,5,2,"[90,95,207,132,57,26,118,214,20,73,276,247,135,214,140,134,280,225,24,105]",8,0,1,0,0,0,98,97,97,72,1,,,,,,,,,,,,,,,,,,,,,
,,,,,,,,,,,,,,,,,,,,,,,,,,,,,,,,,,,,,,,,,,,5f3eae2b3dd0a010c0002168,5fb5da8a6693fd1d68ac9738,2020-11-19_04h38.25.830,Colour_Similarity_Experiment,2020.1.2,Win32,60,5fb5945709dec70f2d595766,,,,,,,,,,,,,,,,,,,,FF,,,,,,,,3,1.973375,,,,,,,,,,,,,,,,,,,,,,,,,,,,3,-54,-76,1,0,0,response5disk,2,-1,6,1,0,0,rectangle,-1,6,1,0,0,5,1,"[90,95,207,132,57,26,118,214,20,73,276,247,135,214,140,134,280,225,24,105]",-1,6,1,0,0,0,99,98,98,93,1,,,,,,,,,,,,,,,,,,,,,
,,,,,,,,,,,,,,,,,,,,,,,,,,,,,,,,,,,,,,,,,,,5f3eae2b3dd0a010c0002168,5fb5da8a6693fd1d68ac9738,2020-11-19_04h38.25.830,Colour_Similarity_Experiment,2020.1.2,Win32,60,5fb5945709dec70f2d595766,,,,,,,,,,,,,,,,,,,,PF,,,,,,,,7,1.901125,,,,,,,,,,,,,,,,,,,,,,,,,,,,6,50,87,1,0,0,response1disk,2,-7,-6,1,0,0,rectangle,-7,-6,1,0,0,5,6,"[90,95,207,132,57,26,118,214,20,73,276,247,135,214,140,134,280,225,24,105]",-7,-6,1,0,0,0,100,99,99,130,1,,,,,,,,,,,,,,,,,,,,,
,,,,,,,,,,,,,,,,,,,,,,,,,,,,,,,,,,,,,,,,,,,5f3eae2b3dd0a010c0002168,5fb5da8a6693fd1d68ac9738,2020-11-19_04h38.25.830,Colour_Similarity_Experiment,2020.1.2,Win32,60,5fb5945709dec70f2d595766,,,,,,,,,,,,,,,,,,,,PF,,,,,,,,4,2.017905,,,,,,,,,,,,,,,,,,,,,,,,,,,,6,52,-75,1,0,0,response3disk,9,8,5,1,0,0,rectangle,8,5,1,0,0,5,2,"[90,95,207,132,57,26,118,214,20,73,276,247,135,214,140,134,280,225,24,105]",8,5,1,0,0,0,101,100,100,45,1,,,,,,,,,,,,,,,,,,,,,
,,,,,,,,,,,,,,,,,,,,,,,,,,,,,,,,,,,,,,,,,,,5f3eae2b3dd0a010c0002168,5fb5da8a6693fd1d68ac9738,2020-11-19_04h38.25.830,Colour_Similarity_Experiment,2020.1.2,Win32,60,5fb5945709dec70f2d595766,,,,,,,,,,,,,,,,,,,,PF,,,,,,,,7,1.568185,,,,,,,,,,,,,,,,,,,,,,,,,,,,4,46,61,1,0,0,response1disk,1,0,-15,1,0,0,rectangle,0,-15,1,0,0,5,4,"[90,95,207,132,57,26,118,214,20,73,276,247,135,214,140,134,280,225,24,105]",0,-15,1,0,0,0,102,101,101,115,1,,,,,,,,,,,,,,,,,,,,,
,,,,,,,,,,,,,,,,,,,,,,,,,,,,,,,,,,,,,,,,,,,5f3eae2b3dd0a010c0002168,5fb5da8a6693fd1d68ac9738,2020-11-19_04h38.25.830,Colour_Similarity_Experiment,2020.1.2,Win32,60,5fb5945709dec70f2d595766,,,,,,,,,,,,,,,,,,,,PF,,,,,,,,7,1.435325,,,,,,,,,,,,,,,,,,,,,,,,,,,,9,30,52,1,0,0,response1disk,4,0,4,1,0,0,rectangle,0,4,1,0,0,5,7,"[90,95,207,132,57,26,118,214,20,73,276,247,135,214,140,134,280,225,24,105]",0,4,1,0,0,0,103,102,102,114,1,,,,,,,,,,,,,,,,,,,,,
,,,,,,,,,,,,,,,,,,,,,,,,,,,,,,,,,,,,,,,,,,,5f3eae2b3dd0a010c0002168,5fb5da8a6693fd1d68ac9738,2020-11-19_04h38.25.830,Colour_Similarity_Experiment,2020.1.2,Win32,60,5fb5945709dec70f2d595766,,,,,,,,,,,,,,,,,,,,PF,,,,,,,,2,1.79236,,,,,,,,,,,,,,,,,,,,,,,,,,,,6,-81,-53,1,0,0,response5disk,5,18,-8,1,0,0,rectangle,18,-8,1,0,0,5,6,"[90,95,207,132,57,26,118,214,20,73,276,247,135,214,140,134,280,225,24,105]",18,-8,1,0,0,0,104,103,103,59,1,,,,,,,,,,,,,,,,,,,,,
,,,,,,,,,,,,,,,,,,,,,,,,,,,,,,,,,,,,,,,,,,,5f3eae2b3dd0a010c0002168,5fb5da8a6693fd1d68ac9738,2020-11-19_04h38.25.830,Colour_Similarity_Experiment,2020.1.2,Win32,60,5fb5945709dec70f2d595766,,,,,,,,,,,,,,,,,,,,FF,,,,,,,,7,1.034575,,,,,,,,,,,,,,,,,,,,,,,,,,,,3,42,69,1,0,0,response1disk,9,-1,3,1,0,0,rectangle,83,37,1,0,0,6,6,"[90,95,207,132,57,26,118,214,20,73,276,247,135,214,140,134,280,225,24,105]",3,7,1,0,0,0,105,104,104,143,1,response1disk_3,rectangle,,,,,,,,,,,,,,,,,,,
,,,,,,,,,,,,,,,,,,,,,,,,,,,,,,,,,,,,,,,,,,,5f3eae2b3dd0a010c0002168,5fb5da8a6693fd1d68ac9738,2020-11-19_04h38.25.830,Colour_Similarity_Experiment,2020.1.2,Win32,60,5fb5945709dec70f2d595766,,,,,,,,,,,,,,,,,,,,PF,,,,,,,,6,3.01389,,,,,,,,,,,,,,,,,,,,,,,,,,,,7,83,43,1,0,0,response1disk,3,10,-1,1,0,0,rectangle,10,-1,1,0,0,6,0,"[90,95,207,132,57,26,118,214,20,73,276,247,135,214,140,134,280,225,24,105]",10,-1,1,0,0,0,106,105,105,81,1,,,,,,,,,,,,,,,,,,,,,
,,,,,,,,,,,,,,,,,,,,,,,,,,,,,,,,,,,,,,,,,,,5f3eae2b3dd0a010c0002168,5fb5da8a6693fd1d68ac9738,2020-11-19_04h38.25.830,Colour_Similarity_Experiment,2020.1.2,Win32,60,5fb5945709dec70f2d595766,,,,,,,,,,,,,,,,,,,,FF,,,,,,,,5,2.33148,,,,,,,,,,,,,,,,,,,,,,,,,,,,5,77,-36,1,0,0,response3disk,9,-9,5,1,0,0,rectangle,-9,5,1,0,0,6,5,"[90,95,207,132,57,26,118,214,20,73,276,247,135,214,140,134,280,225,24,105]",-9,5,1,0,0,0,107,106,106,61,1,,,,,,,,,,,,,,,,,,,,,
,,,,,,,,,,,,,,,,,,,,,,,,,,,,,,,,,,,,,,,,,,,5f3eae2b3dd0a010c0002168,5fb5da8a6693fd1d68ac9738,2020-11-19_04h38.25.830,Colour_Similarity_Experiment,2020.1.2,Win32,60,5fb5945709dec70f2d595766,,,,,,,,,,,,,,,,,,,,FF,,,,,,,,7,1.980295,,,,,,,,,,,,,,,,,,,,,,,,,,,,3,46,65,1,0,0,response1disk,1,-3,1,1,0,0,rectangle,-3,1,1,0,0,6,7,"[90,95,207,132,57,26,118,214,20,73,276,247,135,214,140,134,280,225,24,105]",-3,1,1,0,0,0,108,107,107,125,1,,,,,,,,,,,,,,,,,,,,,
,,,,,,,,,,,,,,,,,,,,,,,,,,,,,,,,,,,,,,,,,,,5f3eae2b3dd0a010c0002168,5fb5da8a6693fd1d68ac9738,2020-11-19_04h38.25.830,Colour_Similarity_Experiment,2020.1.2,Win32,60,5fb5945709dec70f2d595766,,,,,,,,,,,,,,,,,,,,FF,,,,,,,,6,3.09757,,,,,,,,,,,,,,,,,,,,,,,,,,,,3,70,23,1,0,0,response1disk,8,16,-2,1,0,0,rectangle,16,-2,1,0,0,6,0,"[90,95,207,132,57,26,118,214,20,73,276,247,135,214,140,134,280,225,24,105]",16,-2,1,0,0,0,109,108,108,44,1,,,,,,,,,,,,,,,,,,,,,
,,,,,,,,,,,,,,,,,,,,,,,,,,,,,,,,,,,,,,,,,,,5f3eae2b3dd0a010c0002168,5fb5da8a6693fd1d68ac9738,2020-11-19_04h38.25.830,Colour_Similarity_Experiment,2020.1.2,Win32,60,5fb5945709dec70f2d595766,,,,,,,,,,,,,,,,,,,,PF,,,,,,,,6,1.87695,,,,,,,,,,,,,,,,,,,,,,,,,,,,3,54,32,1,0,0,response1disk,6,7,2,1,0,0,rectangle,7,2,1,0,0,6,6,"[90,95,207,132,57,26,118,214,20,73,276,247,135,214,140,134,280,225,24,105]",7,2,1,0,0,0,110,109,109,47,1,,,,,,,,,,,,,,,,,,,,,
,,,,,,,,,,,,,,,,,,,,,,,,,,,,,,,,,,,,,,,,,,,5f3eae2b3dd0a010c0002168,5fb5da8a6693fd1d68ac9738,2020-11-19_04h38.25.830,Colour_Similarity_Experiment,2020.1.2,Win32,60,5fb5945709dec70f2d595766,,,,,,,,,,,,,,,,,,,,FF,,,,,,,,7,1.529095,,,,,,,,,,,,,,,,,,,,,,,,,,,,1,21,64,1,0,0,response1disk,7,-8,1,1,0,0,rectangle,-8,1,1,0,0,6,6,"[90,95,207,132,57,26,118,214,20,73,276,247,135,214,140,134,280,225,24,105]",-8,1,1,0,0,0,111,110,110,137,1,,,,,,,,,,,,,,,,,,,,,
,,,,,,,,,,,,,,,,,,,,,,,,,,,,,,,,,,,,,,,,,,,5f3eae2b3dd0a010c0002168,5fb5da8a6693fd1d68ac9738,2020-11-19_04h38.25.830,Colour_Similarity_Experiment,2020.1.2,Win32,60,5fb5945709dec70f2d595766,,,,,,,,,,,,,,,,,,,,PF,,,,,,,,1,1.913345,,,,,,,,,,,,,,,,,,,,,,,,,,,,4,-77,33,1,0,0,response7disk,4,6,5,1,0,0,rectangle,6,5,1,0,0,6,1,"[90,95,207,132,57,26,118,214,20,73,276,247,135,214,140,134,280,225,24,105]",6,5,1,0,0,0,112,111,111,70,1,,,,,,,,,,,,,,,,,,,,,
,,,,,,,,,,,,,,,,,,,,,,,,,,,,,,,,,,,,,,,,,,,5f3eae2b3dd0a010c0002168,5fb5da8a6693fd1d68ac9738,2020-11-19_04h38.25.830,Colour_Similarity_Experiment,2020.1.2,Win32,60,5fb5945709dec70f2d595766,,,,,,,,,,,,,,,,,,,,FF,,,,,,,,7,2.402585,,,,,,,,,,,,,,,,,,,,,,,,,,,,8,53,73,1,0,0,response1disk,3,8,-3,1,0,0,rectangle,8,-3,1,0,0,6,1,"[90,95,207,132,57,26,118,214,20,73,276,247,135,214,140,134,280,225,24,105]",8,-3,1,0,0,0,113,112,112,154,1,,,,,,,,,,,,,,,,,,,,,
,,,,,,,,,,,,,,,,,,,,,,,,,,,,,,,,,,,,,,,,,,,5f3eae2b3dd0a010c0002168,5fb5da8a6693fd1d68ac9738,2020-11-19_04h38.25.830,Colour_Similarity_Experiment,2020.1.2,Win32,60,5fb5945709dec70f2d595766,,,,,,,,,,,,,,,,,,,,FF,,,,,,,,5,1.87643,,,,,,,,,,,,,,,,,,,,,,,,,,,,8,102,-53,1,0,0,response3disk,5,-4,0,1,0,0,rectangle,-4,0,1,0,0,6,4,"[90,95,207,132,57,26,118,214,20,73,276,247,135,214,140,134,280,225,24,105]",-4,0,1,0,0,0,114,113,113,152,1,,,,,,,,,,,,,,,,,,,,,
,,,,,,,,,,,,,,,,,,,,,,,,,,,,,,,,,,,,,,,,,,,5f3eae2b3dd0a010c0002168,5fb5da8a6693fd1d68ac9738,2020-11-19_04h38.25.830,Colour_Similarity_Experiment,2020.1.2,Win32,60,5fb5945709dec70f2d595766,,,,,,,,,,,,,,,,,,,,PF,,,,,,,,6,1.5048,,,,,,,,,,,,,,,,,,,,,,,,,,,,3,65,46,1,0,0,response1disk,9,4,7,1,0,0,rectangle,4,7,1,0,0,6,0,"[90,95,207,132,57,26,118,214,20,73,276,247,135,214,140,134,280,225,24,105]",4,7,1,0,0,0,115,114,114,79,1,,,,,,,,,,,,,,,,,,,,,
,,,,,,,,,,,,,,,,,,,,,,,,,,,,,,,,,,,,,,,,,,,5f3eae2b3dd0a010c0002168,5fb5da8a6693fd1d68ac9738,2020-11-19_04h38.25.830,Colour_Similarity_Experiment,2020.1.2,Win32,60,5fb5945709dec70f2d595766,,,,,,,,,,,,,,,,,,,,PF,,,,,,,,3,2.12794,,,,,,,,,,,,,,,,,,,,,,,,,,,,6,-45,-82,1,0,0,response5disk,7,4,2,1,0,0,rectangle,4,2,1,0,0,6,0,"[90,95,207,132,57,26,118,214,20,73,276,247,135,214,140,134,280,225,24,105]",4,2,1,0,0,0,116,115,115,50,1,,,,,,,,,,,,,,,,,,,,,
,,,,,,,,,,,,,,,,,,,,,,,,,,,,,,,,,,,,,,,,,,,5f3eae2b3dd0a010c0002168,5fb5da8a6693fd1d68ac9738,2020-11-19_04h38.25.830,Colour_Similarity_Experiment,2020.1.2,Win32,60,5fb5945709dec70f2d595766,,,,,,,,,,,,,,,,,,,,PF,,,,,,,,6,3.852575,,,,,,,,,,,,,,,,,,,,,,,,,,,,5,65,20,1,0,0,response1disk,8,8,3,1,0,0,rectangle,8,3,1,0,0,6,5,"[90,95,207,132,57,26,118,214,20,73,276,247,135,214,140,134,280,225,24,105]",8,3,1,0,0,0,117,116,116,149,1,,,,,,,,,,,,,,,,,,,,,
,,,,,,,,,,,,,,,,,,,,,,,,,,,,,,,,,,,,,,,,,,,5f3eae2b3dd0a010c0002168,5fb5da8a6693fd1d68ac9738,2020-11-19_04h38.25.830,Colour_Similarity_Experiment,2020.1.2,Win32,60,5fb5945709dec70f2d595766,,,,,,,,,,,,,,,,,,,,FF,,,,,,,,6,2.485625,,,,,,,,,,,,,,,,,,,,,,,,,,,,4,71,29,1,0,0,response1disk,7,22,7,1,0,0,rectangle,74,-31,1,0,0,5,5,"[90,95,207,132,57,26,118,214,20,73,276,247,135,214,140,134,280,225,24,105]",16,1,1,0,0,0,118,117,117,87,1,response3disk_3,rectangle,,,,,,,,,,,,,,,,,,,
,,,,,,,,,,,,,,,,,,,,,,,,,,,,,,,,,,,,,,,,,,,5f3eae2b3dd0a010c0002168,5fb5da8a6693fd1d68ac9738,2020-11-19_04h38.25.830,Colour_Similarity_Experiment,2020.1.2,Win32,60,5fb5945709dec70f2d595766,,,,,,,,,,,,,,,,,,,,PF,,,,,,,,3,1.82294,,,,,,,,,,,,,,,,,,,,,,,,,,,,7,-54,-83,1,0,0,response5disk,5,8,-1,1,0,0,rectangle,8,-1,1,0,0,5,6,"[90,95,207,132,57,26,118,214,20,73,276,247,135,214,140,134,280,225,24,105]",8,-1,1,0,0,0,119,118,118,92,1,,,,,,,,,,,,,,,,,,,,,
,,,,,,,,,,,,,,,,,,,,,,,,,,,,,,,,,,,,,,,,,,,5f3eae2b3dd0a010c0002168,5fb5da8a6693fd1d68ac9738,2020-11-19_04h38.25.830,Colour_Similarity_Experiment,2020.1.2,Win32,60,5fb5945709dec70f2d595766,,,,,,,,,,,,,,,,,,,,FF,,,,,,,,0,1.85371,,,,,,,,,,,,,,,,,,,,,,,,,,,,4,-66,94,1,0,0,response7disk,4,-14,6,1,0,0,rectangle,-14,6,1,0,0,5,4,"[90,95,207,132,57,26,118,214,20,73,276,247,135,214,140,134,280,225,24,105]",-14,6,1,0,0,0,120,119,119,84,1,,,,,,,,,,,,,,,,,,,,,
,,,,,,,,,,,,,,,,,,,,,,,,,,,,,,,,,,,,,,,,,,,5f3eae2b3dd0a010c0002168,5fb5da8a6693fd1d68ac9738,2020-11-19_04h38.25.830,Colour_Similarity_Experiment,2020.1.2,Win32,60,5fb5945709dec70f2d595766,,,,,,,,,,,,,,,,,,,,FF,,,,,,,,5,1.926975,,,,,,,,,,,,,,,,,,,,,,,,,,,,5,91,-40,1,0,0,response3disk,3,6,-6,1,0,0,rectangle,6,-6,1,0,0,5,1,"[90,95,207,132,57,26,118,214,20,73,276,247,135,214,140,134,280,225,24,105]",6,-6,1,0,0,0,121,120,120,25,1,,,,,,,,,,,,,,,,,,,,,
,,,,,,,,,,,,,,,,,,,,,,,,,,,,,,,,,,,,,,,,,,,5f3eae2b3dd0a010c0002168,5fb5da8a6693fd1d68ac9738,2020-11-19_04h38.25.830,Colour_Similarity_Experiment,2020.1.2,Win32,60,5fb5945709dec70f2d595766,,,,,,,,,,,,,,,,,,,,PF,,,,,,,,7,1.90748,,,,,,,,,,,,,,,,,,,,,,,,,,,,8,27,58,1,0,0,response1disk,4,3,-14,1,0,0,rectangle,3,-14,1,0,0,5,4,"[90,95,207,132,57,26,118,214,20,73,276,247,135,214,140,134,280,225,24,105]",3,-14,1,0,0,0,122,121,121,78,1,,,,,,,,,,,,,,,,,,,,,
,,,,,,,,,,,,,,,,,,,,,,,,,,,,,,,,,,,,,,,,,,,5f3eae2b3dd0a010c0002168,5fb5da8a6693fd1d68ac9738,2020-11-19_04h38.25.830,Colour_Similarity_Experiment,2020.1.2,Win32,60,5fb5945709dec70f2d595766,,,,,,,,,,,,,,,,,,,,PF,,,,,,,,7,1.369335,,,,,,,,,,,,,,,,,,,,,,,,,,,,7,31,86,1,0,0,response1disk,4,1,0,1,0,0,rectangle,1,0,1,0,0,5,0,"[90,95,207,132,57,26,118,214,20,73,276,247,135,214,140,134,280,225,24,105]",1,0,1,0,0,0,123,122,122,43,1,,,,,,,,,,,,,,,,,,,,,
,,,,,,,,,,,,,,,,,,,,,,,,,,,,,,,,,,,,,,,,,,,5f3eae2b3dd0a010c0002168,5fb5da8a6693fd1d68ac9738,2020-11-19_04h38.25.830,Colour_Similarity_Experiment,2020.1.2,Win32,60,5fb5945709dec70f2d595766,,,,,,,,,,,,,,,,,,,,PF,,,,,,,,1,1.53204,,,,,,,,,,,,,,,,,,,,,,,,,,,,3,-66,33,1,0,0,response7disk,3,-4,3,1,0,0,rectangle,-4,3,1,0,0,5,5,"[90,95,207,132,57,26,118,214,20,73,276,247,135,214,140,134,280,225,24,105]",-4,3,1,0,0,0,124,123,123,4,1,,,,,,,,,,,,,,,,,,,,,
,,,,,,,,,,,,,,,,,,,,,,,,,,,,,,,,,,,,,,,,,,,5f3eae2b3dd0a010c0002168,5fb5da8a6693fd1d68ac9738,2020-11-19_04h38.25.830,Colour_Similarity_Experiment,2020.1.2,Win32,60,5fb5945709dec70f2d595766,,,,,,,,,,,,,,,,,,,,PF,,,,,,,,2,1.93871,,,,,,,,,,,,,,,,,,,,,,,,,,,,4,-72,-39,1,0,0,response5disk,3,-18,-5,1,0,0,rectangle,-18,-5,1,0,0,5,3,"[90,95,207,132,57,26,118,214,20,73,276,247,135,214,140,134,280,225,24,105]",-18,-5,1,0,0,0,125,124,124,89,1,,,,,,,,,,,,,,,,,,,,,
,,,,,,,,,,,,,,,,,,,,,,,,,,,,,,,,,,,,,,,,,,,5f3eae2b3dd0a010c0002168,5fb5da8a6693fd1d68ac9738,2020-11-19_04h38.25.830,Colour_Similarity_Experiment,2020.1.2,Win32,60,5fb5945709dec70f2d595766,,,,,,,,,,,,,,,,,,,,PF,,,,,,,,7,1.84047,,,,,,,,,,,,,,,,,,,,,,,,,,,,8,57,81,1,0,0,response1disk,1,3,-3,1,0,0,rectangle,3,-3,1,0,0,5,6,"[90,95,207,132,57,26,118,214,20,73,276,247,135,214,140,134,280,225,24,105]",3,-3,1,0,0,0,126,125,125,57,1,,,,,,,,,,,,,,,,,,,,,
,,,,,,,,,,,,,,,,,,,,,,,,,,,,,,,,,,,,,,,,,,,5f3eae2b3dd0a010c0002168,5fb5da8a6693fd1d68ac9738,2020-11-19_04h38.25.830,Colour_Similarity_Experiment,2020.1.2,Win32,60,5fb5945709dec70f2d595766,,,,,,,,,,,,,,,,,,,,FF,,,,,,,,7,1.576765,,,,,,,,,,,,,,,,,,,,,,,,,,,,9,45,83,1,0,0,response1disk,6,-2,3,1,0,0,rectangle,-2,3,1,0,0,5,5,"[90,95,207,132,57,26,118,214,20,73,276,247,135,214,140,134,280,225,24,105]",-2,3,1,0,0,0,127,126,126,117,1,,,,,,,,,,,,,,,,,,,,,
,,,,,,,,,,,,,,,,,,,,,,,,,,,,,,,,,,,,,,,,,,,5f3eae2b3dd0a010c0002168,5fb5da8a6693fd1d68ac9738,2020-11-19_04h38.25.830,Colour_Similarity_Experiment,2020.1.2,Win32,60,5fb5945709dec70f2d595766,,,,,,,,,,,,,,,,,,,,PF,,,,,,,,7,1.27646,,,,,,,,,,,,,,,,,,,,,,,,,,,,9,34,54,1,0,0,response1disk,7,4,4,1,0,0,rectangle,4,4,1,0,0,5,5,"[90,95,207,132,57,26,118,214,20,73,276,247,135,214,140,134,280,225,24,105]",4,4,1,0,0,0,128,127,127,121,1,,,,,,,,,,,,,,,,,,,,,
,,,,,,,,,,,,,,,,,,,,,,,,,,,,,,,,,,,,,,,,,,,5f3eae2b3dd0a010c0002168,5fb5da8a6693fd1d68ac9738,2020-11-19_04h38.25.830,Colour_Similarity_Experiment,2020.1.2,Win32,60,5fb5945709dec70f2d595766,,,,,,,,,,,,,,,,,,,,FF,,,,,,,,7,1.14301,,,,,,,,,,,,,,,,,,,,,,,,,,,,1,29,51,1,0,0,response1disk,8,14,12,1,0,0,rectangle,14,12,1,0,0,5,5,"[90,95,207,132,57,26,118,214,20,73,276,247,135,214,140,134,280,225,24,105]",14,12,1,0,0,0,129,128,128,27,1,,,,,,,,,,,,,,,,,,,,,
,,,,,,,,,,,,,,,,,,,,,,,,,,,,,,,,,,,,,,,,,,,5f3eae2b3dd0a010c0002168,5fb5da8a6693fd1d68ac9738,2020-11-19_04h38.25.830,Colour_Similarity_Experiment,2020.1.2,Win32,60,5fb5945709dec70f2d595766,,,,,,,,,,,,,,,,,,,,FF,,,,,,,,6,1.38109,,,,,,,,,,,,,,,,,,,,,,,,,,,,8,94,31,1,0,0,response1disk,1,7,0,1,0,0,rectangle,7,0,1,0,0,5,0,"[90,95,207,132,57,26,118,214,20,73,276,247,135,214,140,134,280,225,24,105]",7,0,1,0,0,0,130,129,129,20,1,,,,,,,,,,,,,,,,,,,,,
,,,,,,,,,,,,,,,,,,,,,,,,,,,,,,,,,,,,,,,,,,,5f3eae2b3dd0a010c0002168,5fb5da8a6693fd1d68ac9738,2020-11-19_04h38.25.830,Colour_Similarity_Experiment,2020.1.2,Win32,60,5fb5945709dec70f2d595766,,,,,,,,,,,,,,,,,,,,FF,,,,,,,,2,1.52285,,,,,,,,,,,,,,,,,,,,,,,,,,,,5,-67,-65,1,0,0,response5disk,7,-14,2,1,0,0,rectangle,-14,2,1,0,0,5,0,"[90,95,207,132,57,26,118,214,20,73,276,247,135,214,140,134,280,225,24,105]",-14,2,1,0,0,0,131,130,130,7,1,,,,,,,,,,,,,,,,,,,,,
,,,,,,,,,,,,,,,,,,,,,,,,,,,,,,,,,,,,,,,,,,,5f3eae2b3dd0a010c0002168,5fb5da8a6693fd1d68ac9738,2020-11-19_04h38.25.830,Colour_Similarity_Experiment,2020.1.2,Win32,60,5fb5945709dec70f2d595766,,,,,,,,,,,,,,,,,,,,FF,,,,,,,,2,1.86166,,,,,,,,,,,,,,,,,,,,,,,,,,,,9,-86,-45,1,0,0,response5disk,8,-8,2,1,0,0,rectangle,-46,-87,1,0,0,3,3,"[90,95,207,132,57,26,118,214,20,73,276,247,135,214,140,134,280,225,24,105]",-15,1,1,0,0,0,132,131,131,6,1,response5disk_3,rectangle,,,,,,,,,,,,,,,,,,,
,,,,,,,,,,,,,,,,,,,,,,,,,,,,,,,,,,,,,,,,,,,5f3eae2b3dd0a010c0002168,5fb5da8a6693fd1d68ac9738,2020-11-19_04h38.25.830,Colour_Similarity_Experiment,2020.1.2,Win32,60,5fb5945709dec70f2d595766,,,,,,,,,,,,,,,,,,,,FF,,,,,,,,6,1.97644,,,,,,,,,,,,,,,,,,,,,,,,,,,,6,88,23,1,0,0,response1disk,3,-24,-3,1,0,0,rectangle,-24,-3,1,0,0,3,0,"[90,95,207,132,57,26,118,214,20,73,276,247,135,214,140,134,280,225,24,105]",-24,-3,1,0,0,0,133,132,132,21,1,,,,,,,,,,,,,,,,,,,,,
,,,,,,,,,,,,,,,,,,,,,,,,,,,,,,,,,,,,,,,,,,,5f3eae2b3dd0a010c0002168,5fb5da8a6693fd1d68ac9738,2020-11-19_04h38.25.830,Colour_Similarity_Experiment,2020.1.2,Win32,60,5fb5945709dec70f2d595766,,,,,,,,,,,,,,,,,,,,PF,,,,,,,,5,2.908095,,,,,,,,,,,,,,,,,,,,,,,,,,,,7,68,-59,1,0,0,response3disk,8,0,-3,1,0,0,rectangle,-23,82,1,0,0,0,0,"[90,95,207,132,57,26,118,214,20,73,276,247,135,214,140,134,280,225,24,105]",1,-6,1,0,0,0,134,133,133,140,1,response7disk_3,rectangle,,,,,,,,,,,,,,,,,,,
,,,,,,,,,,,,,,,,,,,,,,,,,,,,,,,,,,,,,,,,,,,5f3eae2b3dd0a010c0002168,5fb5da8a6693fd1d68ac9738,2020-11-19_04h38.25.830,Colour_Similarity_Experiment,2020.1.2,Win32,60,5fb5945709dec70f2d595766,,,,,,,,,,,,,,,,,,,,FF,,,,,,,,6,1.728585,,,,,,,,,,,,,,,,,,,,,,,,,,,,3,69,25,1,0,0,response1disk,5,0,-4,1,0,0,rectangle,-47,-84,1,0,0,3,3,"[90,95,207,132,57,26,118,214,20,73,276,247,135,214,140,134,280,225,24,105]",-11,-3,1,0,0,0,135,134,134,101,1,response5disk_3,rectangle,,,,,,,,,,,,,,,,,,,
,,,,,,,,,,,,,,,,,,,,,,,,,,,,,,,,,,,,,,,,,,,5f3eae2b3dd0a010c0002168,5fb5da8a6693fd1d68ac9738,2020-11-19_04h38.25.830,Colour_Similarity_Experiment,2020.1.2,Win32,60,5fb5945709dec70f2d595766,,,,,,,,,,,,,,,,,,,,FF,,,,,,,,7,1.62214,,,,,,,,,,,,,,,,,,,,,,,,,,,,4,42,91,1,0,0,response1disk,9,3,-3,1,0,0,rectangle,3,-3,1,0,0,3,3,"[90,95,207,132,57,26,118,214,20,73,276,247,135,214,140,134,280,225,24,105]",3,-3,1,0,0,0,136,135,135,90,1,,,,,,,,,,,,,,,,,,,,,
,,,,,,,,,,,,,,,,,,,,,,,,,,,,,,,,,,,,,,,,,,,5f3eae2b3dd0a010c0002168,5fb5da8a6693fd1d68ac9738,2020-11-19_04h38.25.830,Colour_Similarity_Experiment,2020.1.2,Win32,60,5fb5945709dec70f2d595766,,,,,,,,,,,,,,,,,,,,FF,,,,,,,,7,1.199585,,,,,,,,,,,,,,,,,,,,,,,,,,,,8,16,65,1,0,0,response1disk,4,-2,-3,1,0,0,rectangle,-2,-3,1,0,0,3,1,"[90,95,207,132,57,26,118,214,20,73,276,247,135,214,140,134,280,225,24,105]",-2,-3,1,0,0,0,137,136,136,88,1,,,,,,,,,,,,,,,,,,,,,
,,,,,,,,,,,,,,,,,,,,,,,,,,,,,,,,,,,,,,,,,,,5f3eae2b3dd0a010c0002168,5fb5da8a6693fd1d68ac9738,2020-11-19_04h38.25.830,Colour_Similarity_Experiment,2020.1.2,Win32,60,5fb5945709dec70f2d595766,,,,,,,,,,,,,,,,,,,,FF,,,,,,,,7,1.10094,,,,,,,,,,,,,,,,,,,,,,,,,,,,7,29,56,1,0,0,response1disk,1,4,8,1,0,0,rectangle,4,8,1,0,0,3,6,"[90,95,207,132,57,26,118,214,20,73,276,247,135,214,140,134,280,225,24,105]",4,8,1,0,0,0,138,137,137,132,1,,,,,,,,,,,,,,,,,,,,,
,,,,,,,,,,,,,,,,,,,,,,,,,,,,,,,,,,,,,,,,,,,5f3eae2b3dd0a010c0002168,5fb5da8a6693fd1d68ac9738,2020-11-19_04h38.25.830,Colour_Similarity_Experiment,2020.1.2,Win32,60,5fb5945709dec70f2d595766,,,,,,,,,,,,,,,,,,,,PF,,,,,,,,7,3.15622,,,,,,,,,,,,,,,,,,,,,,,,,,,,4,21,60,1,0,0,response1disk,8,3,6,1,0,0,rectangle,3,6,1,0,0,3,1,"[90,95,207,132,57,26,118,214,20,73,276,247,135,214,140,134,280,225,24,105]",3,6,1,0,0,0,139,138,138,124,1,,,,,,,,,,,,,,,,,,,,,
,,,,,,,,,,,,,,,,,,,,,,,,,,,,,,,,,,,,,,,,,,,5f3eae2b3dd0a010c0002168,5fb5da8a6693fd1d68ac9738,2020-11-19_04h38.25.830,Colour_Similarity_Experiment,2020.1.2,Win32,60,5fb5945709dec70f2d595766,,,,,,,,,,,,,,,,,,,,FF,,,,,,,,6,3.41399,,,,,,,,,,,,,,,,,,,,,,,,,,,,9,82,42,1,0,0,response1disk,5,12,7,1,0,0,rectangle,41,-74,1,0,0,4,4,"[90,95,207,132,57,26,118,214,20,73,276,247,135,214,140,134,280,225,24,105]",3,5,1,0,0,0,140,139,139,128,1,response3disk_3,rectangle,,,,,,,,,,,,,,,,,,,
,,,,,,,,,,,,,,,,,,,,,,,,,,,,,,,,,,,,,,,,,,,5f3eae2b3dd0a010c0002168,5fb5da8a6693fd1d68ac9738,2020-11-19_04h38.25.830,Colour_Similarity_Experiment,2020.1.2,Win32,60,5fb5945709dec70f2d595766,,,,,,,,,,,,,,,,,,,,FF,,,,,,,,7,1.29656,,,,,,,,,,,,,,,,,,,,,,,,,,,,6,20,61,1,0,0,response1disk,1,5,4,1,0,0,rectangle,5,4,1,0,0,4,2,"[90,95,207,132,57,26,118,214,20,73,276,247,135,214,140,134,280,225,24,105]",5,4,1,0,0,0,141,140,140,5,1,,,,,,,,,,,,,,,,,,,,,
,,,,,,,,,,,,,,,,,,,,,,,,,,,,,,,,,,,,,,,,,,,5f3eae2b3dd0a010c0002168,5fb5da8a6693fd1d68ac9738,2020-11-19_04h38.25.830,Colour_Similarity_Experiment,2020.1.2,Win32,60,5fb5945709dec70f2d595766,,,,,,,,,,,,,,,,,,,,PF,,,,,,,,6,1.679235,,,,,,,,,,,,,,,,,,,,,,,,,,,,8,83,22,1,0,0,response1disk,6,-16,-7,1,0,0,rectangle,-16,-7,1,0,0,4,0,"[90,95,207,132,57,26,118,214,20,73,276,247,135,214,140,134,280,225,24,105]",-16,-7,1,0,0,0,142,141,141,161,1,,,,,,,,,,,,,,,,,,,,,
,,,,,,,,,,,,,,,,,,,,,,,,,,,,,,,,,,,,,,,,,,,5f3eae2b3dd0a010c0002168,5fb5da8a6693fd1d68ac9738,2020-11-19_04h38.25.830,Colour_Similarity_Experiment,2020.1.2,Win32,60,5fb5945709dec70f2d595766,,,,,,,,,,,,,,,,,,,,PF,,,,,,,,0,1.477605,,,,,,,,,,,,,,,,,,,,,,,,,,,,5,-33,61,1,0,0,response7disk,5,-9,6,1,0,0,rectangle,-9,6,1,0,0,4,5,"[90,95,207,132,57,26,118,214,20,73,276,247,135,214,140,134,280,225,24,105]",-9,6,1,0,0,0,143,142,142,94,1,,,,,,,,,,,,,,,,,,,,,
,,,,,,,,,,,,,,,,,,,,,,,,,,,,,,,,,,,,,,,,,,,5f3eae2b3dd0a010c0002168,5fb5da8a6693fd1d68ac9738,2020-11-19_04h38.25.830,Colour_Similarity_Experiment,2020.1.2,Win32,60,5fb5945709dec70f2d595766,,,,,,,,,,,,,,,,,,,,FF,,,,,,,,5,1.58161,,,,,,,,,,,,,,,,,,,,,,,,,,,,5,77,-45,1,0,0,response3disk,4,12,2,1,0,0,rectangle,12,2,1,0,0,4,1,"[90,95,207,132,57,26,118,214,20,73,276,247,135,214,140,134,280,225,24,105]",12,2,1,0,0,0,144,143,143,8,1,,,,,,,,,,,,,,,,,,,,,
,,,,,,,,,,,,,,,,,,,,,,,,,,,,,,,,,,,,,,,,,,,5f3eae2b3dd0a010c0002168,5fb5da8a6693fd1d68ac9738,2020-11-19_04h38.25.830,Colour_Similarity_Experiment,2020.1.2,Win32,60,5fb5945709dec70f2d595766,,,,,,,,,,,,,,,,,,,,FF,,,,,,,,0,1.23292,,,,,,,,,,,,,,,,,,,,,,,,,,,,5,-41,67,1,0,0,response7disk,5,-10,4,1,0,0,rectangle,-10,4,1,0,0,4,6,"[90,95,207,132,57,26,118,214,20,73,276,247,135,214,140,134,280,225,24,105]",-10,4,1,0,0,0,145,144,144,19,1,,,,,,,,,,,,,,,,,,,,,
,,,,,,,,,,,,,,,,,,,,,,,,,,,,,,,,,,,,,,,,,,,5f3eae2b3dd0a010c0002168,5fb5da8a6693fd1d68ac9738,2020-11-19_04h38.25.830,Colour_Similarity_Experiment,2020.1.2,Win32,60,5fb5945709dec70f2d595766,,,,,,,,,,,,,,,,,,,,FF,,,,,,,,7,1.041555,,,,,,,,,,,,,,,,,,,,,,,,,,,,6,48,72,1,0,0,response1disk,2,2,6,1,0,0,rectangle,2,6,1,0,0,4,5,"[90,95,207,132,57,26,118,214,20,73,276,247,135,214,140,134,280,225,24,105]",2,6,1,0,0,0,146,145,145,112,1,,,,,,,,,,,,,,,,,,,,,
,,,,,,,,,,,,,,,,,,,,,,,,,,,,,,,,,,,,,,,,,,,5f3eae2b3dd0a010c0002168,5fb5da8a6693fd1d68ac9738,2020-11-19_04h38.25.830,Colour_Similarity_Experiment,2020.1.2,Win32,60,5fb5945709dec70f2d595766,,,,,,,,,,,,,,,,,,,,PF,,,,,,,,3,2.30833,,,,,,,,,,,,,,,,,,,,,,,,,,,,5,-46,-68,1,0,0,response5disk,7,-15,-4,1,0,0,rectangle,-15,-4,1,0,0,4,6,"[90,95,207,132,57,26,118,214,20,73,276,247,135,214,140,134,280,225,24,105]",-15,-4,1,0,0,0,147,146,146,146,1,,,,,,,,,,,,,,,,,,,,,
,,,,,,,,,,,,,,,,,,,,,,,,,,,,,,,,,,,,,,,,,,,5f3eae2b3dd0a010c0002168,5fb5da8a6693fd1d68ac9738,2020-11-19_04h38.25.830,Colour_Similarity_Experiment,2020.1.2,Win32,60,5fb5945709dec70f2d595766,,,,,,,,,,,,,,,,,,,,PF,,,,,,,,6,1.529065,,,,,,,,,,,,,,,,,,,,,,,,,,,,4,97,31,1,0,0,response1disk,7,-6,-1,1,0,0,rectangle,-6,-1,1,0,0,4,3,"[90,95,207,132,57,26,118,214,20,73,276,247,135,214,140,134,280,225,24,105]",-6,-1,1,0,0,0,148,147,147,38,1,,,,,,,,,,,,,,,,,,,,,
,,,,,,,,,,,,,,,,,,,,,,,,,,,,,,,,,,,,,,,,,,,5f3eae2b3dd0a010c0002168,5fb5da8a6693fd1d68ac9738,2020-11-19_04h38.25.830,Colour_Similarity_Experiment,2020.1.2,Win32,60,5fb5945709dec70f2d595766,,,,,,,,,,,,,,,,,,,,PF,,,,,,,,7,1.303045,,,,,,,,,,,,,,,,,,,,,,,,,,,,3,34,72,1,0,0,response1disk,1,4,12,1,0,0,rectangle,4,12,1,0,0,4,5,"[90,95,207,132,57,26,118,214,20,73,276,247,135,214,140,134,280,225,24,105]",4,12,1,0,0,0,149,148,148,96,1,,,,,,,,,,,,,,,,,,,,,
,,,,,,,,,,,,,,,,,,,,,,,,,,,,,,,,,,,,,,,,,,,5f3eae2b3dd0a010c0002168,5fb5da8a6693fd1d68ac9738,2020-11-19_04h38.25.830,Colour_Similarity_Experiment,2020.1.2,Win32,60,5fb5945709dec70f2d595766,,,,,,,,,,,,,,,,,,,,PF,,,,,,,,2,1.582635,,,,,,,,,,,,,,,,,,,,,,,,,,,,9,-61,-33,1,0,0,response5disk,9,-20,-3,1,0,0,rectangle,-20,-3,1,0,0,4,0,"[90,95,207,132,57,26,118,214,20,73,276,247,135,214,140,134,280,225,24,105]",-20,-3,1,0,0,0,150,149,149,106,1,,,,,,,,,,,,,,,,,,,,,
,,,,,,,,,,,,,,,,,,,,,,,,,,,,,,,,,,,,,,,,,,,5f3eae2b3dd0a010c0002168,5fb5da8a6693fd1d68ac9738,2020-11-19_04h38.25.830,Colour_Similarity_Experiment,2020.1.2,Win32,60,5fb5945709dec70f2d595766,,,,,,,,,,,,,,,,,,,,PF,,,,,,,,1,1.452385,,,,,,,,,,,,,,,,,,,,,,,,,,,,8,-82,47,1,0,0,response7disk,8,3,10,1,0,0,rectangle,3,10,1,0,0,4,7,"[90,95,207,132,57,26,118,214,20,73,276,247,135,214,140,134,280,225,24,105]",3,10,1,0,0,0,151,150,150,153,1,,,,,,,,,,,,,,,,,,,,,
,,,,,,,,,,,,,,,,,,,,,,,,,,,,,,,,,,,,,,,,,,,5f3eae2b3dd0a010c0002168,5fb5da8a6693fd1d68ac9738,2020-11-19_04h38.25.830,Colour_Similarity_Experiment,2020.1.2,Win32,60,5fb5945709dec70f2d595766,,,,,,,,,,,,,,,,,,,,PF,,,,,,,,7,1.605715,,,,,,,,,,,,,,,,,,,,,,,,,,,,9,56,66,1,0,0,response1disk,5,-3,-4,1,0,0,rectangle,-3,-4,1,0,0,4,4,"[90,95,207,132,57,26,118,214,20,73,276,247,135,214,140,134,280,225,24,105]",-3,-4,1,0,0,0,152,151,151,134,1,,,,,,,,,,,,,,,,,,,,,
,,,,,,,,,,,,,,,,,,,,,,,,,,,,,,,,,,,,,,,,,,,5f3eae2b3dd0a010c0002168,5fb5da8a6693fd1d68ac9738,2020-11-19_04h38.25.830,Colour_Similarity_Experiment,2020.1.2,Win32,60,5fb5945709dec70f2d595766,,,,,,,,,,,,,,,,,,,,PF,,,,,,,,6,2.447455,,,,,,,,,,,,,,,,,,,,,,,,,,,,4,88,29,1,0,0,response1disk,5,-17,-9,1,0,0,rectangle,-17,-9,1,0,0,4,4,"[90,95,207,132,57,26,118,214,20,73,276,247,135,214,140,134,280,225,24,105]",-17,-9,1,0,0,0,153,152,152,49,1,,,,,,,,,,,,,,,,,,,,,
,,,,,,,,,,,,,,,,,,,,,,,,,,,,,,,,,,,,,,,,,,,5f3eae2b3dd0a010c0002168,5fb5da8a6693fd1d68ac9738,2020-11-19_04h38.25.830,Colour_Similarity_Experiment,2020.1.2,Win32,60,5fb5945709dec70f2d595766,,,,,,,,,,,,,,,,,,,,FF,,,,,,,,2,2.63858,,,,,,,,,,,,,,,,,,,,,,,,,,,,7,-72,-48,1,0,0,response5disk,6,-3,3,1,0,0,rectangle,-3,3,1,0,0,4,1,"[90,95,207,132,57,26,118,214,20,73,276,247,135,214,140,134,280,225,24,105]",-3,3,1,0,0,0,154,153,153,31,1,,,,,,,,,,,,,,,,,,,,,
,,,,,,,,,,,,,,,,,,,,,,,,,,,,,,,,,,,,,,,,,,,5f3eae2b3dd0a010c0002168,5fb5da8a6693fd1d68ac9738,2020-11-19_04h38.25.830,Colour_Similarity_Experiment,2020.1.2,Win32,60,5fb5945709dec70f2d595766,,,,,,,,,,,,,,,,,,,,PF,,,,,,,,5,1.60836,,,,,,,,,,,,,,,,,,,,,,,,,,,,6,75,-34,1,0,0,response3disk,8,-1,6,1,0,0,rectangle,-1,6,1,0,0,4,1,"[90,95,207,132,57,26,118,214,20,73,276,247,135,214,140,134,280,225,24,105]",-1,6,1,0,0,0,155,154,154,64,1,,,,,,,,,,,,,,,,,,,,,
,,,,,,,,,,,,,,,,,,,,,,,,,,,,,,,,,,,,,,,,,,,5f3eae2b3dd0a010c0002168,5fb5da8a6693fd1d68ac9738,2020-11-19_04h38.25.830,Colour_Similarity_Experiment,2020.1.2,Win32,60,5fb5945709dec70f2d595766,,,,,,,,,,,,,,,,,,,,FF,,,,,,,,7,1.239195,,,,,,,,,,,,,,,,,,,,,,,,,,,,2,57,61,1,0,0,response1disk,1,3,5,1,0,0,rectangle,3,5,1,0,0,4,6,"[90,95,207,132,57,26,118,214,20,73,276,247,135,214,140,134,280,225,24,105]",3,5,1,0,0,0,156,155,155,85,1,,,,,,,,,,,,,,,,,,,,,
,,,,,,,,,,,,,,,,,,,,,,,,,,,,,,,,,,,,,,,,,,,5f3eae2b3dd0a010c0002168,5fb5da8a6693fd1d68ac9738,2020-11-19_04h38.25.830,Colour_Similarity_Experiment,2020.1.2,Win32,60,5fb5945709dec70f2d595766,,,,,,,,,,,,,,,,,,,,PF,,,,,,,,7,1.5092,,,,,,,,,,,,,,,,,,,,,,,,,,,,1,45,55,1,0,0,response1disk,8,-22,1,1,0,0,rectangle,-22,1,1,0,0,4,0,"[90,95,207,132,57,26,118,214,20,73,276,247,135,214,140,134,280,225,24,105]",-22,1,1,0,0,0,157,156,156,65,1,,,,,,,,,,,,,,,,,,,,,
,,,,,,,,,,,,,,,,,,,,,,,,,,,,,,,,,,,,,,,,,,,5f3eae2b3dd0a010c0002168,5fb5da8a6693fd1d68ac9738,2020-11-19_04h38.25.830,Colour_Similarity_Experiment,2020.1.2,Win32,60,5fb5945709dec70f2d595766,,,,,,,,,,,,,,,,,,,,FF,,,,,,,,7,1.278285,,,,,,,,,,,,,,,,,,,,,,,,,,,,1,30,52,1,0,0,response1disk,5,-1,-4,1,0,0,rectangle,-1,-4,1,0,0,4,6,"[90,95,207,132,57,26,118,214,20,73,276,247,135,214,140,134,280,225,24,105]",-1,-4,1,0,0,0,158,157,157,82,1,,,,,,,,,,,,,,,,,,,,,
,,,,,,,,,,,,,,,,,,,,,,,,,,,,,,,,,,,,,,,,,,,5f3eae2b3dd0a010c0002168,5fb5da8a6693fd1d68ac9738,2020-11-19_04h38.25.830,Colour_Similarity_Experiment,2020.1.2,Win32,60,5fb5945709dec70f2d595766,,,,,,,,,,,,,,,,,,,,FF,,,,,,,,6,1.75276,,,,,,,,,,,,,,,,,,,,,,,,,,,,7,64,31,1,0,0,response1disk,8,4,9,1,0,0,rectangle,4,9,1,0,0,4,0,"[90,95,207,132,57,26,118,214,20,73,276,247,135,214,140,134,280,225,24,105]",4,9,1,0,0,0,159,158,158,97,1,,,,,,,,,,,,,,,,,,,,,
,,,,,,,,,,,,,,,,,,,,,,,,,,,,,,,,,,,,,,,,,,,5f3eae2b3dd0a010c0002168,5fb5da8a6693fd1d68ac9738,2020-11-19_04h38.25.830,Colour_Similarity_Experiment,2020.1.2,Win32,60,5fb5945709dec70f2d595766,,,,,,,,,,,,,,,,,,,,FF,,,,,,,,6,1.849885,,,,,,,,,,,,,,,,,,,,,,,,,,,,3,61,26,1,0,0,response1disk,6,-19,4,1,0,0,rectangle,-19,4,1,0,0,4,2,"[90,95,207,132,57,26,118,214,20,73,276,247,135,214,140,134,280,225,24,105]",-19,4,1,0,0,0,160,159,159,95,1,,,,,,,,,,,,,,,,,,,,,
,,,,,,,,,,,,,,,,,,,,,,,,,,,,,,,,,,,,,,,,,,,5f3eae2b3dd0a010c0002168,5fb5da8a6693fd1d68ac9738,2020-11-19_04h38.25.830,Colour_Similarity_Experiment,2020.1.2,Win32,60,5fb5945709dec70f2d595766,,,,,,,,,,,,,,,,,,,,FF,,,,,,,,3,2.17319,,,,,,,,,,,,,,,,,,,,,,,,,,,,2,-34,-90,1,0,0,response5disk,3,17,3,1,0,0,rectangle,17,3,1,0,0,4,4,"[90,95,207,132,57,26,118,214,20,73,276,247,135,214,140,134,280,225,24,105]",17,3,1,0,0,0,161,160,160,104,1,,,,,,,,,,,,,,,,,,,,,
,,,,,,,,,,,,,,,,,,,,,,,,,,,,,,,,,,,,,,,,,,,5f3eae2b3dd0a010c0002168,5fb5da8a6693fd1d68ac9738,2020-11-19_04h38.25.830,Colour_Similarity_Experiment,2020.1.2,Win32,60,5fb5945709dec70f2d595766,,,,,,,,,,,,,,,,,,,,FF,,,,,,,,5,1.786525,,,,,,,,,,,,,,,,,,,,,,,,,,,,8,73,-33,1,0,0,response3disk,7,20,-6,1,0,0,rectangle,20,-6,1,0,0,4,4,"[90,95,207,132,57,26,118,214,20,73,276,247,135,214,140,134,280,225,24,105]",20,-6,1,0,0,0,162,161,161,86,1,,,,,,,,,,,,,,,,,,,,,
,,,,,,,,,,,,,,,,,,,,,,,,,,,,,,,,,,,,,,,,,,,5f3eae2b3dd0a010c0002168,5fb5da8a6693fd1d68ac9738,2020-11-19_04h38.25.830,Colour_Similarity_Experiment,2020.1.2,Win32,60,5fb5945709dec70f2d595766,,,,,,,,,,,,,,,,,,,,,,,,,,,,,,,,,,,,,,,,,,,,,,,,,,,,,,,,,,,,,,,,,,,,,,,,,,,,,,,,,,,,,,,,,,,,0,0,0,0,1,,,,,,,,,,,,,,
,,,,,,,,,,,,,,,,,,,,,,,,,,,,,,,,,,,,,,,,,,,5f3eae2b3dd0a010c0002168,5fb5da8a6693fd1d68ac9738,2020-11-19_04h38.25.830,Colour_Similarity_Experiment,2020.1.2,Win32,60,5fb5945709dec70f2d595766,,,,,,,,,,,,,,,,,,,,FF,,,,,,,,7,1.660555,,,,,,,,,,,,,,,,,,,,,,,,,,,,5,56,82,1,0,0,response1disk,2,18,1,1,0,0,rectangle,18,1,1,0,0,4,2,"[90,95,207,132,57,26,118,214,20,73,276,247,135,214,140,134,280,225,24,105]",18,1,1,0,0,0,163,0,0,55,1,,,,,,,,,,,,,,,,,,,,,
,,,,,,,,,,,,,,,,,,,,,,,,,,,,,,,,,,,,,,,,,,,5f3eae2b3dd0a010c0002168,5fb5da8a6693fd1d68ac9738,2020-11-19_04h38.25.830,Colour_Similarity_Experiment,2020.1.2,Win32,60,5fb5945709dec70f2d595766,,,,,,,,,,,,,,,,,,,,PF,,,,,,,,7,1.12377,,,,,,,,,,,,,,,,,,,,,,,,,,,,5,41,70,1,0,0,response1disk,1,-1,7,1,0,0,rectangle,-1,7,1,0,0,4,0,"[90,95,207,132,57,26,118,214,20,73,276,247,135,214,140,134,280,225,24,105]",-1,7,1,0,0,0,164,1,1,159,1,,,,,,,,,,,,,,,,,,,,,
,,,,,,,,,,,,,,,,,,,,,,,,,,,,,,,,,,,,,,,,,,,5f3eae2b3dd0a010c0002168,5fb5da8a6693fd1d68ac9738,2020-11-19_04h38.25.830,Colour_Similarity_Experiment,2020.1.2,Win32,60,5fb5945709dec70f2d595766,,,,,,,,,,,,,,,,,,,,FF,,,,,,,,7,0.97418,,,,,,,,,,,,,,,,,,,,,,,,,,,,2,50,81,1,0,0,response1disk,7,16,2,1,0,0,rectangle,16,2,1,0,0,4,3,"[90,95,207,132,57,26,118,214,20,73,276,247,135,214,140,134,280,225,24,105]",16,2,1,0,0,0,165,2,2,63,1,,,,,,,,,,,,,,,,,,,,,
,,,,,,,,,,,,,,,,,,,,,,,,,,,,,,,,,,,,,,,,,,,5f3eae2b3dd0a010c0002168,5fb5da8a6693fd1d68ac9738,2020-11-19_04h38.25.830,Colour_Similarity_Experiment,2020.1.2,Win32,60,5fb5945709dec70f2d595766,,,,,,,,,,,,,,,,,,,,FF,,,,,,,,7,0.87695,,,,,,,,,,,,,,,,,,,,,,,,,,,,6,39,68,1,0,0,response1disk,9,8,2,1,0,0,rectangle,8,2,1,0,0,4,4,"[90,95,207,132,57,26,118,214,20,73,276,247,135,214,140,134,280,225,24,105]",8,2,1,0,0,0,166,3,3,160,1,,,,,,,,,,,,,,,,,,,,,
,,,,,,,,,,,,,,,,,,,,,,,,,,,,,,,,,,,,,,,,,,,5f3eae2b3dd0a010c0002168,5fb5da8a6693fd1d68ac9738,2020-11-19_04h38.25.830,Colour_Similarity_Experiment,2020.1.2,Win32,60,5fb5945709dec70f2d595766,,,,,,,,,,,,,,,,,,,,FF,,,,,,,,1,1.505955,,,,,,,,,,,,,,,,,,,,,,,,,,,,5,-60,28,1,0,0,response7disk,6,-6,7,1,0,0,rectangle,-6,7,1,0,0,4,7,"[90,95,207,132,57,26,118,214,20,73,276,247,135,214,140,134,280,225,24,105]",-6,7,1,0,0,0,167,4,4,12,1,,,,,,,,,,,,,,,,,,,,,
,,,,,,,,,,,,,,,,,,,,,,,,,,,,,,,,,,,,,,,,,,,5f3eae2b3dd0a010c0002168,5fb5da8a6693fd1d68ac9738,2020-11-19_04h38.25.830,Colour_Similarity_Experiment,2020.1.2,Win32,60,5fb5945709dec70f2d595766,,,,,,,,,,,,,,,,,,,,FF,,,,,,,,5,1.81888,,,,,,,,,,,,,,,,,,,,,,,,,,,,6,71,-33,1,0,0,response3disk,8,1,2,1,0,0,rectangle,1,2,1,0,0,4,2,"[90,95,207,132,57,26,118,214,20,73,276,247,135,214,140,134,280,225,24,105]",1,2,1,0,0,0,168,5,5,133,1,,,,,,,,,,,,,,,,,,,,,
,,,,,,,,,,,,,,,,,,,,,,,,,,,,,,,,,,,,,,,,,,,5f3eae2b3dd0a010c0002168,5fb5da8a6693fd1d68ac9738,2020-11-19_04h38.25.830,Colour_Similarity_Experiment,2020.1.2,Win32,60,5fb5945709dec70f2d595766,,,,,,,,,,,,,,,,,,,,PF,,,,,,,,7,1.025955,,,,,,,,,,,,,,,,,,,,,,,,,,,,8,28,80,1,0,0,response1disk,3,2,-2,1,0,0,rectangle,2,-2,1,0,0,4,5,"[90,95,207,132,57,26,118,214,20,73,276,247,135,214,140,134,280,225,24,105]",2,-2,1,0,0,0,169,6,6,71,1,,,,,,,,,,,,,,,,,,,,,
,,,,,,,,,,,,,,,,,,,,,,,,,,,,,,,,,,,,,,,,,,,5f3eae2b3dd0a010c0002168,5fb5da8a6693fd1d68ac9738,2020-11-19_04h38.25.830,Colour_Similarity_Experiment,2020.1.2,Win32,60,5fb5945709dec70f2d595766,,,,,,,,,,,,,,,,,,,,FF,,,,,,,,2,1.138685,,,,,,,,,,,,,,,,,,,,,,,,,,,,7,-71,-47,1,0,0,response5disk,5,2,-3,1,0,0,rectangle,2,-3,1,0,0,4,3,"[90,95,207,132,57,26,118,214,20,73,276,247,135,214,140,134,280,225,24,105]",2,-3,1,0,0,0,170,7,7,156,1,,,,,,,,,,,,,,,,,,,,,
,,,,,,,,,,,,,,,,,,,,,,,,,,,,,,,,,,,,,,,,,,,5f3eae2b3dd0a010c0002168,5fb5da8a6693fd1d68ac9738,2020-11-19_04h38.25.830,Colour_Similarity_Experiment,2020.1.2,Win32,60,5fb5945709dec70f2d595766,,,,,,,,,,,,,,,,,,,,FF,,,,,,,,3,2.25161,,,,,,,,,,,,,,,,,,,,,,,,,,,,9,-48,-68,1,0,0,response5disk,1,2,0,1,0,0,rectangle,2,0,1,0,0,4,2,"[90,95,207,132,57,26,118,214,20,73,276,247,135,214,140,134,280,225,24,105]",2,0,1,0,0,0,171,8,8,111,1,,,,,,,,,,,,,,,,,,,,,
,,,,,,,,,,,,,,,,,,,,,,,,,,,,,,,,,,,,,,,,,,,5f3eae2b3dd0a010c0002168,5fb5da8a6693fd1d68ac9738,2020-11-19_04h38.25.830,Colour_Similarity_Experiment,2020.1.2,Win32,60,5fb5945709dec70f2d595766,,,,,,,,,,,,,,,,,,,,PF,,,,,,,,3,3.11284,,,,,,,,,,,,,,,,,,,,,,,,,,,,9,-35,-56,1,0,0,response5disk,8,-3,-13,1,0,0,rectangle,-3,-13,1,0,0,4,4,"[90,95,207,132,57,26,118,214,20,73,276,247,135,214,140,134,280,225,24,105]",-3,-13,1,0,0,0,172,9,9,67,1,,,,,,,,,,,,,,,,,,,,,
,,,,,,,,,,,,,,,,,,,,,,,,,,,,,,,,,,,,,,,,,,,5f3eae2b3dd0a010c0002168,5fb5da8a6693fd1d68ac9738,2020-11-19_04h38.25.830,Colour_Similarity_Experiment,2020.1.2,Win32,60,5fb5945709dec70f2d595766,,,,,,,,,,,,,,,,,,,,FF,,,,,,,,6,3.38757,,,,,,,,,,,,,,,,,,,,,,,,,,,,1,80,29,1,0,0,response1disk,3,11,-9,1,0,0,rectangle,11,-9,1,0,0,4,5,"[90,95,207,132,57,26,118,214,20,73,276,247,135,214,140,134,280,225,24,105]",11,-9,1,0,0,0,173,10,10,99,1,,,,,,,,,,,,,,,,,,,,,
,,,,,,,,,,,,,,,,,,,,,,,,,,,,,,,,,,,,,,,,,,,5f3eae2b3dd0a010c0002168,5fb5da8a6693fd1d68ac9738,2020-11-19_04h38.25.830,Colour_Similarity_Experiment,2020.1.2,Win32,60,5fb5945709dec70f2d595766,,,,,,,,,,,,,,,,,,,,PF,,,,,,,,7,1.251755,,,,,,,,,,,,,,,,,,,,,,,,,,,,2,30,80,1,0,0,response1disk,7,1,-7,1,0,0,rectangle,1,-7,1,0,0,4,1,"[90,95,207,132,57,26,118,214,20,73,276,247,135,214,140,134,280,225,24,105]",1,-7,1,0,0,0,174,11,11,107,1,,,,,,,,,,,,,,,,,,,,,
,,,,,,,,,,,,,,,,,,,,,,,,,,,,,,,,,,,,,,,,,,,5f3eae2b3dd0a010c0002168,5fb5da8a6693fd1d68ac9738,2020-11-19_04h38.25.830,Colour_Similarity_Experiment,2020.1.2,Win32,60,5fb5945709dec70f2d595766,,,,,,,,,,,,,,,,,,,,PF,,,,,,,,7,4.937265,,,,,,,,,,,,,,,,,,,,,,,,,,,,9,38,75,1,0,0,response1disk,2,12,-4,1,0,0,rectangle,12,-4,1,0,0,4,7,"[90,95,207,132,57,26,118,214,20,73,276,247,135,214,140,134,280,225,24,105]",12,-4,1,0,0,0,175,12,12,157,1,,,,,,,,,,,,,,,,,,,,,
,,,,,,,,,,,,,,,,,,,,,,,,,,,,,,,,,,,,,,,,,,,5f3eae2b3dd0a010c0002168,5fb5da8a6693fd1d68ac9738,2020-11-19_04h38.25.830,Colour_Similarity_Experiment,2020.1.2,Win32,60,5fb5945709dec70f2d595766,,,,,,,,,,,,,,,,,,,,FF,,,,,,,,7,1.13474,,,,,,,,,,,,,,,,,,,,,,,,,,,,7,31,72,1,0,0,response1disk,2,11,5,1,0,0,rectangle,11,5,1,0,0,4,1,"[90,95,207,132,57,26,118,214,20,73,276,247,135,214,140,134,280,225,24,105]",11,5,1,0,0,0,176,13,13,138,1,,,,,,,,,,,,,,,,,,,,,
,,,,,,,,,,,,,,,,,,,,,,,,,,,,,,,,,,,,,,,,,,,5f3eae2b3dd0a010c0002168,5fb5da8a6693fd1d68ac9738,2020-11-19_04h38.25.830,Colour_Similarity_Experiment,2020.1.2,Win32,60,5fb5945709dec70f2d595766,,,,,,,,,,,,,,,,,,,,FF,,,,,,,,6,1.506215,,,,,,,,,,,,,,,,,,,,,,,,,,,,3,91,31,1,0,0,response1disk,7,-4,-6,1,0,0,rectangle,-4,-6,1,0,0,4,4,"[90,95,207,132,57,26,118,214,20,73,276,247,135,214,140,134,280,225,24,105]",-4,-6,1,0,0,0,177,14,14,118,1,,,,,,,,,,,,,,,,,,,,,
,,,,,,,,,,,,,,,,,,,,,,,,,,,,,,,,,,,,,,,,,,,5f3eae2b3dd0a010c0002168,5fb5da8a6693fd1d68ac9738,2020-11-19_04h38.25.830,Colour_Similarity_Experiment,2020.1.2,Win32,60,5fb5945709dec70f2d595766,,,,,,,,,,,,,,,,,,,,PF,,,,,,,,4,1.788285,,,,,,,,,,,,,,,,,,,,,,,,,,,,2,49,-89,1,0,0,response3disk,4,7,-10,1,0,0,rectangle,7,-10,1,0,0,4,4,"[90,95,207,132,57,26,118,214,20,73,276,247,135,214,140,134,280,225,24,105]",7,-10,1,0,0,0,178,15,15,127,1,,,,,,,,,,,,,,,,,,,,,
,,,,,,,,,,,,,,,,,,,,,,,,,,,,,,,,,,,,,,,,,,,5f3eae2b3dd0a010c0002168,5fb5da8a6693fd1d68ac9738,2020-11-19_04h38.25.830,Colour_Similarity_Experiment,2020.1.2,Win32,60,5fb5945709dec70f2d595766,,,,,,,,,,,,,,,,,,,,PF,,,,,,,,7,0.96621,,,,,,,,,,,,,,,,,,,,,,,,,,,,1,61,102,1,0,0,response1disk,6,12,-7,1,0,0,rectangle,12,-7,1,0,0,4,6,"[90,95,207,132,57,26,118,214,20,73,276,247,135,214,140,134,280,225,24,105]",12,-7,1,0,0,0,179,16,16,144,1,,,,,,,,,,,,,,,,,,,,,
,,,,,,,,,,,,,,,,,,,,,,,,,,,,,,,,,,,,,,,,,,,5f3eae2b3dd0a010c0002168,5fb5da8a6693fd1d68ac9738,2020-11-19_04h38.25.830,Colour_Similarity_Experiment,2020.1.2,Win32,60,5fb5945709dec70f2d595766,,,,,,,,,,,,,,,,,,,,FF,,,,,,,,5,1.969155,,,,,,,,,,,,,,,,,,,,,,,,,,,,2,93,-47,1,0,0,response3disk,4,-1,12,1,0,0,rectangle,-1,12,1,0,0,4,3,"[90,95,207,132,57,26,118,214,20,73,276,247,135,214,140,134,280,225,24,105]",-1,12,1,0,0,0,180,17,17,145,1,,,,,,,,,,,,,,,,,,,,,
,,,,,,,,,,,,,,,,,,,,,,,,,,,,,,,,,,,,,,,,,,,5f3eae2b3dd0a010c0002168,5fb5da8a6693fd1d68ac9738,2020-11-19_04h38.25.830,Colour_Similarity_Experiment,2020.1.2,Win32,60,5fb5945709dec70f2d595766,,,,,,,,,,,,,,,,,,,,PF,,,,,,,,7,0.883625,,,,,,,,,,,,,,,,,,,,,,,,,,,,2,45,99,1,0,0,response1disk,9,11,4,1,0,0,rectangle,11,4,1,0,0,4,2,"[90,95,207,132,57,26,118,214,20,73,276,247,135,214,140,134,280,225,24,105]",11,4,1,0,0,0,181,18,18,39,1,,,,,,,,,,,,,,,,,,,,,
,,,,,,,,,,,,,,,,,,,,,,,,,,,,,,,,,,,,,,,,,,,5f3eae2b3dd0a010c0002168,5fb5da8a6693fd1d68ac9738,2020-11-19_04h38.25.830,Colour_Similarity_Experiment,2020.1.2,Win32,60,5fb5945709dec70f2d595766,,,,,,,,,,,,,,,,,,,,FF,,,,,,,,5,2.00052,,,,,,,,,,,,,,,,,,,,,,,,,,,,1,107,-44,1,0,0,response3disk,9,12,6,1,0,0,rectangle,12,6,1,0,0,4,7,"[90,95,207,132,57,26,118,214,20,73,276,247,135,214,140,134,280,225,24,105]",12,6,1,0,0,0,182,19,19,123,1,,,,,,,,,,,,,,,,,,,,,
,,,,,,,,,,,,,,,,,,,,,,,,,,,,,,,,,,,,,,,,,,,5f3eae2b3dd0a010c0002168,5fb5da8a6693fd1d68ac9738,2020-11-19_04h38.25.830,Colour_Similarity_Experiment,2020.1.2,Win32,60,5fb5945709dec70f2d595766,,,,,,,,,,,,,,,,,,,,FF,,,,,,,,5,1.344795,,,,,,,,,,,,,,,,,,,,,,,,,,,,8,95,-45,1,0,0,response3disk,6,-10,13,1,0,0,rectangle,-10,13,1,0,0,4,2,"[90,95,207,132,57,26,118,214,20,73,276,247,135,214,140,134,280,225,24,105]",-10,13,1,0,0,0,183,20,20,37,1,,,,,,,,,,,,,,,,,,,,,
,,,,,,,,,,,,,,,,,,,,,,,,,,,,,,,,,,,,,,,,,,,5f3eae2b3dd0a010c0002168,5fb5da8a6693fd1d68ac9738,2020-11-19_04h38.25.830,Colour_Similarity_Experiment,2020.1.2,Win32,60,5fb5945709dec70f2d595766,,,,,,,,,,,,,,,,,,,,FF,,,,,,,,7,1.266045,,,,,,,,,,,,,,,,,,,,,,,,,,,,7,43,89,1,0,0,response1disk,4,7,-10,1,0,0,rectangle,7,-10,1,0,0,4,2,"[90,95,207,132,57,26,118,214,20,73,276,247,135,214,140,134,280,225,24,105]",7,-10,1,0,0,0,184,21,21,158,1,,,,,,,,,,,,,,,,,,,,,
,,,,,,,,,,,,,,,,,,,,,,,,,,,,,,,,,,,,,,,,,,,5f3eae2b3dd0a010c0002168,5fb5da8a6693fd1d68ac9738,2020-11-19_04h38.25.830,Colour_Similarity_Experiment,2020.1.2,Win32,60,5fb5945709dec70f2d595766,,,,,,,,,,,,,,,,,,,,FF,,,,,,,,7,1.01317,,,,,,,,,,,,,,,,,,,,,,,,,,,,2,41,78,1,0,0,response1disk,5,3,6,1,0,0,rectangle,3,6,1,0,0,4,5,"[90,95,207,132,57,26,118,214,20,73,276,247,135,214,140,134,280,225,24,105]",3,6,1,0,0,0,185,22,22,80,1,,,,,,,,,,,,,,,,,,,,,
,,,,,,,,,,,,,,,,,,,,,,,,,,,,,,,,,,,,,,,,,,,5f3eae2b3dd0a010c0002168,5fb5da8a6693fd1d68ac9738,2020-11-19_04h38.25.830,Colour_Similarity_Experiment,2020.1.2,Win32,60,5fb5945709dec70f2d595766,,,,,,,,,,,,,,,,,,,,PF,,,,,,,,7,0.875355,,,,,,,,,,,,,,,,,,,,,,,,,,,,4,49,88,1,0,0,response1disk,9,-1,7,1,0,0,rectangle,-1,7,1,0,0,4,4,"[90,95,207,132,57,26,118,214,20,73,276,247,135,214,140,134,280,225,24,105]",-1,7,1,0,0,0,186,23,23,75,1,,,,,,,,,,,,,,,,,,,,,
,,,,,,,,,,,,,,,,,,,,,,,,,,,,,,,,,,,,,,,,,,,5f3eae2b3dd0a010c0002168,5fb5da8a6693fd1d68ac9738,2020-11-19_04h38.25.830,Colour_Similarity_Experiment,2020.1.2,Win32,60,5fb5945709dec70f2d595766,,,,,,,,,,,,,,,,,,,,PF,,,,,,,,2,1.25121,,,,,,,,,,,,,,,,,,,,,,,,,,,,8,-82,-40,1,0,0,response5disk,9,-7,-1,1,0,0,rectangle,-7,-1,1,0,0,4,0,"[90,95,207,132,57,26,118,214,20,73,276,247,135,214,140,134,280,225,24,105]",-7,-1,1,0,0,0,187,24,24,42,1,,,,,,,,,,,,,,,,,,,,,
,,,,,,,,,,,,,,,,,,,,,,,,,,,,,,,,,,,,,,,,,,,5f3eae2b3dd0a010c0002168,5fb5da8a6693fd1d68ac9738,2020-11-19_04h38.25.830,Colour_Similarity_Experiment,2020.1.2,Win32,60,5fb5945709dec70f2d595766,,,,,,,,,,,,,,,,,,,,PF,,,,,,,,7,1.382875,,,,,,,,,,,,,,,,,,,,,,,,,,,,4,35,88,1,0,0,response1disk,6,6,3,1,0,0,rectangle,6,3,1,0,0,4,2,"[90,95,207,132,57,26,118,214,20,73,276,247,135,214,140,134,280,225,24,105]",6,3,1,0,0,0,188,25,25,120,1,,,,,,,,,,,,,,,,,,,,,
,,,,,,,,,,,,,,,,,,,,,,,,,,,,,,,,,,,,,,,,,,,5f3eae2b3dd0a010c0002168,5fb5da8a6693fd1d68ac9738,2020-11-19_04h38.25.830,Colour_Similarity_Experiment,2020.1.2,Win32,60,5fb5945709dec70f2d595766,,,,,,,,,,,,,,,,,,,,FF,,,,,,,,1,1.12563,,,,,,,,,,,,,,,,,,,,,,,,,,,,6,-86,41,1,0,0,response7disk,5,5,-4,1,0,0,rectangle,5,-4,1,0,0,4,0,"[90,95,207,132,57,26,118,214,20,73,276,247,135,214,140,134,280,225,24,105]",5,-4,1,0,0,0,189,26,26,126,1,,,,,,,,,,,,,,,,,,,,,
,,,,,,,,,,,,,,,,,,,,,,,,,,,,,,,,,,,,,,,,,,,5f3eae2b3dd0a010c0002168,5fb5da8a6693fd1d68ac9738,2020-11-19_04h38.25.830,Colour_Similarity_Experiment,2020.1.2,Win32,60,5fb5945709dec70f2d595766,,,,,,,,,,,,,,,,,,,,PF,,,,,,,,0,1.224005,,,,,,,,,,,,,,,,,,,,,,,,,,,,1,-41,109,1,0,0,response7disk,1,-7,3,1,0,0,rectangle,-7,3,1,0,0,4,4,"[90,95,207,132,57,26,118,214,20,73,276,247,135,214,140,134,280,225,24,105]",-7,3,1,0,0,0,190,27,27,76,1,,,,,,,,,,,,,,,,,,,,,
,,,,,,,,,,,,,,,,,,,,,,,,,,,,,,,,,,,,,,,,,,,5f3eae2b3dd0a010c0002168,5fb5da8a6693fd1d68ac9738,2020-11-19_04h38.25.830,Colour_Similarity_Experiment,2020.1.2,Win32,60,5fb5945709dec70f2d595766,,,,,,,,,,,,,,,,,,,,FF,,,,,,,,6,3.101255,,,,,,,,,,,,,,,,,,,,,,,,,,,,6,96,34,1,0,0,response1disk,4,9,5,1,0,0,rectangle,9,5,1,0,0,4,0,"[90,95,207,132,57,26,118,214,20,73,276,247,135,214,140,134,280,225,24,105]",9,5,1,0,0,0,191,28,28,56,1,,,,,,,,,,,,,,,,,,,,,
,,,,,,,,,,,,,,,,,,,,,,,,,,,,,,,,,,,,,,,,,,,5f3eae2b3dd0a010c0002168,5fb5da8a6693fd1d68ac9738,2020-11-19_04h38.25.830,Colour_Similarity_Experiment,2020.1.2,Win32,60,5fb5945709dec70f2d595766,,,,,,,,,,,,,,,,,,,,FF,,,,,,,,1,1.454925,,,,,,,,,,,,,,,,,,,,,,,,,,,,9,-92,35,1,0,0,response7disk,9,-2,10,1,0,0,rectangle,-2,10,1,0,0,4,4,"[90,95,207,132,57,26,118,214,20,73,276,247,135,214,140,134,280,225,24,105]",-2,10,1,0,0,0,192,29,29,17,1,,,,,,,,,,,,,,,,,,,,,
,,,,,,,,,,,,,,,,,,,,,,,,,,,,,,,,,,,,,,,,,,,5f3eae2b3dd0a010c0002168,5fb5da8a6693fd1d68ac9738,2020-11-19_04h38.25.830,Colour_Similarity_Experiment,2020.1.2,Win32,60,5fb5945709dec70f2d595766,,,,,,,,,,,,,,,,,,,,PF,,,,,,,,1,0.98803,,,,,,,,,,,,,,,,,,,,,,,,,,,,2,-94,32,1,0,0,response7disk,2,16,-8,1,0,0,rectangle,16,-8,1,0,0,4,4,"[90,95,207,132,57,26,118,214,20,73,276,247,135,214,140,134,280,225,24,105]",16,-8,1,0,0,0,193,30,30,14,1,,,,,,,,,,,,,,,,,,,,,
,,,,,,,,,,,,,,,,,,,,,,,,,,,,,,,,,,,,,,,,,,,5f3eae2b3dd0a010c0002168,5fb5da8a6693fd1d68ac9738,2020-11-19_04h38.25.830,Colour_Similarity_Experiment,2020.1.2,Win32,60,5fb5945709dec70f2d595766,,,,,,,,,,,,,,,,,,,,FF,,,,,,,,7,0.90081,,,,,,,,,,,,,,,,,,,,,,,,,,,,2,44,87,1,0,0,response1disk,8,3,14,1,0,0,rectangle,3,14,1,0,0,4,3,"[90,95,207,132,57,26,118,214,20,73,276,247,135,214,140,134,280,225,24,105]",3,14,1,0,0,0,194,31,31,62,1,,,,,,,,,,,,,,,,,,,,,
,,,,,,,,,,,,,,,,,,,,,,,,,,,,,,,,,,,,,,,,,,,5f3eae2b3dd0a010c0002168,5fb5da8a6693fd1d68ac9738,2020-11-19_04h38.25.830,Colour_Similarity_Experiment,2020.1.2,Win32,60,5fb5945709dec70f2d595766,,,,,,,,,,,,,,,,,,,,PF,,,,,,,,7,0.801255,,,,,,,,,,,,,,,,,,,,,,,,,,,,6,45,84,1,0,0,response1disk,1,4,7,1,0,0,rectangle,4,7,1,0,0,4,6,"[90,95,207,132,57,26,118,214,20,73,276,247,135,214,140,134,280,225,24,105]",4,7,1,0,0,0,195,32,32,46,1,,,,,,,,,,,,,,,,,,,,,
,,,,,,,,,,,,,,,,,,,,,,,,,,,,,,,,,,,,,,,,,,,5f3eae2b3dd0a010c0002168,5fb5da8a6693fd1d68ac9738,2020-11-19_04h38.25.830,Colour_Similarity_Experiment,2020.1.2,Win32,60,5fb5945709dec70f2d595766,,,,,,,,,,,,,,,,,,,,FF,,,,,,,,7,0.75676,,,,,,,,,,,,,,,,,,,,,,,,,,,,5,33,72,1,0,0,response1disk,1,-5,-14,1,0,0,rectangle,-5,-14,1,0,0,4,3,"[90,95,207,132,57,26,118,214,20,73,276,247,135,214,140,134,280,225,24,105]",-5,-14,1,0,0,0,196,33,33,131,1,,,,,,,,,,,,,,,,,,,,,
,,,,,,,,,,,,,,,,,,,,,,,,,,,,,,,,,,,,,,,,,,,5f3eae2b3dd0a010c0002168,5fb5da8a6693fd1d68ac9738,2020-11-19_04h38.25.830,Colour_Similarity_Experiment,2020.1.2,Win32,60,5fb5945709dec70f2d595766,,,,,,,,,,,,,,,,,,,,FF,,,,,,,,7,1.772555,,,,,,,,,,,,,,,,,,,,,,,,,,,,9,36,70,1,0,0,response1disk,7,11,14,1,0,0,rectangle,11,14,1,0,0,4,2,"[90,95,207,132,57,26,118,214,20,73,276,247,135,214,140,134,280,225,24,105]",11,14,1,0,0,0,197,34,34,100,1,,,,,,,,,,,,,,,,,,,,,
,,,,,,,,,,,,,,,,,,,,,,,,,,,,,,,,,,,,,,,,,,,5f3eae2b3dd0a010c0002168,5fb5da8a6693fd1d68ac9738,2020-11-19_04h38.25.830,Colour_Similarity_Experiment,2020.1.2,Win32,60,5fb5945709dec70f2d595766,,,,,,,,,,,,,,,,,,,,PF,,,,,,,,1,1.00486,,,,,,,,,,,,,,,,,,,,,,,,,,,,3,-71,35,1,0,0,response7disk,2,-4,2,1,0,0,rectangle,-4,2,1,0,0,4,2,"[90,95,207,132,57,26,118,214,20,73,276,247,135,214,140,134,280,225,24,105]",-4,2,1,0,0,0,198,35,35,36,1,,,,,,,,,,,,,,,,,,,,,
,,,,,,,,,,,,,,,,,,,,,,,,,,,,,,,,,,,,,,,,,,,5f3eae2b3dd0a010c0002168,5fb5da8a6693fd1d68ac9738,2020-11-19_04h38.25.830,Colour_Similarity_Experiment,2020.1.2,Win32,60,5fb5945709dec70f2d595766,,,,,,,,,,,,,,,,,,,,FF,,,,,,,,7,1.03336,,,,,,,,,,,,,,,,,,,,,,,,,,,,9,23,55,1,0,0,response1disk,2,10,5,1,0,0,rectangle,10,5,1,0,0,4,1,"[90,95,207,132,57,26,118,214,20,73,276,247,135,214,140,134,280,225,24,105]",10,5,1,0,0,0,199,36,36,11,1,,,,,,,,,,,,,,,,,,,,,
,,,,,,,,,,,,,,,,,,,,,,,,,,,,,,,,,,,,,,,,,,,5f3eae2b3dd0a010c0002168,5fb5da8a6693fd1d68ac9738,2020-11-19_04h38.25.830,Colour_Similarity_Experiment,2020.1.2,Win32,60,5fb5945709dec70f2d595766,,,,,,,,,,,,,,,,,,,,PF,,,,,,,,7,2.283315,,,,,,,,,,,,,,,,,,,,,,,,,,,,3,33,67,1,0,0,response1disk,5,0,7,1,0,0,rectangle,0,7,1,0,0,4,1,"[90,95,207,132,57,26,118,214,20,73,276,247,135,214,140,134,280,225,24,105]",0,7,1,0,0,0,200,37,37,66,1,,,,,,,,,,,,,,,,,,,,,
,,,,,,,,,,,,,,,,,,,,,,,,,,,,,,,,,,,,,,,,,,,5f3eae2b3dd0a010c0002168,5fb5da8a6693fd1d68ac9738,2020-11-19_04h38.25.830,Colour_Similarity_Experiment,2020.1.2,Win32,60,5fb5945709dec70f2d595766,,,,,,,,,,,,,,,,,,,,PF,,,,,,,,5,1.374015,,,,,,,,,,,,,,,,,,,,,,,,,,,,8,69,-31,1,0,0,response3disk,5,4,-1,1,0,0,rectangle,4,-1,1,0,0,4,3,"[90,95,207,132,57,26,118,214,20,73,276,247,135,214,140,134,280,225,24,105]",4,-1,1,0,0,0,201,38,38,98,1,,,,,,,,,,,,,,,,,,,,,
,,,,,,,,,,,,,,,,,,,,,,,,,,,,,,,,,,,,,,,,,,,5f3eae2b3dd0a010c0002168,5fb5da8a6693fd1d68ac9738,2020-11-19_04h38.25.830,Colour_Similarity_Experiment,2020.1.2,Win32,60,5fb5945709dec70f2d595766,,,,,,,,,,,,,,,,,,,,PF,,,,,,,,5,1.819465,,,,,,,,,,,,,,,,,,,,,,,,,,,,3,92,-40,1,0,0,response3disk,4,14,-5,1,0,0,rectangle,14,-5,1,0,0,4,1,"[90,95,207,132,57,26,118,214,20,73,276,247,135,214,140,134,280,225,24,105]",14,-5,1,0,0,0,202,39,39,30,1,,,,,,,,,,,,,,,,,,,,,
,,,,,,,,,,,,,,,,,,,,,,,,,,,,,,,,,,,,,,,,,,,5f3eae2b3dd0a010c0002168,5fb5da8a6693fd1d68ac9738,2020-11-19_04h38.25.830,Colour_Similarity_Experiment,2020.1.2,Win32,60,5fb5945709dec70f2d595766,,,,,,,,,,,,,,,,,,,,FF,,,,,,,,3,1.28141,,,,,,,,,,,,,,,,,,,,,,,,,,,,4,-31,-71,1,0,0,response5disk,3,2,9,1,0,0,rectangle,2,9,1,0,0,4,5,"[90,95,207,132,57,26,118,214,20,73,276,247,135,214,140,134,280,225,24,105]",2,9,1,0,0,0,203,40,40,77,1,,,,,,,,,,,,,,,,,,,,,
,,,,,,,,,,,,,,,,,,,,,,,,,,,,,,,,,,,,,,,,,,,5f3eae2b3dd0a010c0002168,5fb5da8a6693fd1d68ac9738,2020-11-19_04h38.25.830,Colour_Similarity_Experiment,2020.1.2,Win32,60,5fb5945709dec70f2d595766,,,,,,,,,,,,,,,,,,,,PF,,,,,,,,7,1.1922,,,,,,,,,,,,,,,,,,,,,,,,,,,,2,43,76,1,0,0,response1disk,6,6,-1,1,0,0,rectangle,6,-1,1,0,0,4,5,"[90,95,207,132,57,26,118,214,20,73,276,247,135,214,140,134,280,225,24,105]",6,-1,1,0,0,0,204,41,41,113,1,,,,,,,,,,,,,,,,,,,,,
,,,,,,,,,,,,,,,,,,,,,,,,,,,,,,,,,,,,,,,,,,,5f3eae2b3dd0a010c0002168,5fb5da8a6693fd1d68ac9738,2020-11-19_04h38.25.830,Colour_Similarity_Experiment,2020.1.2,Win32,60,5fb5945709dec70f2d595766,,,,,,,,,,,,,,,,,,,,PF,,,,,,,,5,1.329855,,,,,,,,,,,,,,,,,,,,,,,,,,,,8,81,-31,1,0,0,response3disk,7,8,3,1,0,0,rectangle,8,3,1,0,0,4,4,"[90,95,207,132,57,26,118,214,20,73,276,247,135,214,140,134,280,225,24,105]",8,3,1,0,0,0,205,42,42,23,1,,,,,,,,,,,,,,,,,,,,,
