key_resp.keys,key_resp.rt,key_resp_16.keys,key_resp_16.rt,key_resp_2.keys,key_resp_2.rt,X Scale,ratio_pxpermm,screen_size_x,screen_size_y,testsize,key_resp_3.keys,key_resp_3.rt,key_resp_4.keys,key_resp_4.rt,line_size,key_resp_5.keys,key_resp_5.rt,key_resp_6.keys,key_resp_6.rt,key_resp_8.keys,key_resp_8.rt,key_resp_7.keys,key_resp_7.rt,key_resp_12.keys,key_resp_12.rt,key_resp_11.keys,key_resp_11.rt,key_resp_18.keys,key_resp_18.rt,key_resp_21.keys,key_resp_21.rt,key_resp_13.keys,key_resp_13.rt,key_resp_19.keys,key_resp_19.rt,ballposx,viewer_distance,trials.thisRepN,trials.thisTrialN,trials.thisN,trials.thisIndex,trials.ran,participant,session,date,expName,psychopyVersion,OS,frameRate,study_id,viewerdistancecm,DVA_to_distance,radius_F,radius_P,r_F,R_P,key_resp_20.keys,key_resp_20.rt,key_resp_14.keys,key_resp_14.rt,key_resp_15.keys,key_resp_15.rt,key_resp_17.keys,key_resp_17.rt,key_resp_9.keys,key_resp_9.rt,key_resp_10.keys,key_resp_10.rt,Colour_1,Ecc,mouse_5.x,mouse_5.y,mouse_5.leftButton,mouse_5.midButton,mouse_5.rightButton,mouse_5.clicked_name,Colour_2,similarity,response_time,mouse_10.x,mouse_10.y,mouse_10.leftButton,mouse_10.midButton,mouse_10.rightButton,mouse_10.clicked_name,mouse_7.x,mouse_7.y,mouse_7.leftButton,mouse_7.midButton,mouse_7.rightButton,catchnumberprac,mouse_6.x,mouse_6.y,mouse_6.leftButton,mouse_6.midButton,mouse_6.rightButton,duringprac.thisRepN,duringprac.thisTrialN,duringprac.thisN,duringprac.thisIndex,duringprac.ran,mouse_7.clicked_name,catchprac,mouse_6.clicked_name,key_resp_22.keys,key_resp_22.rt,Colour1,mouse.x,mouse.y,mouse.leftButton,mouse.midButton,mouse.rightButton,mouse.clicked_name,Colour2,mouse_2.x,mouse_2.y,mouse_2.leftButton,mouse_2.midButton,mouse_2.rightButton,mouse_2.clicked_name,mouse_3.x,mouse_3.y,mouse_3.leftButton,mouse_3.midButton,mouse_3.rightButton,catchresponse,catchnumber,catchtrialorder,mouse_11.x,mouse_11.y,mouse_11.leftButton,mouse_11.midButton,mouse_11.rightButton,trials_2.thisRepN,trialnumber,trials_2.thisTrialN,trials_2.thisN,trials_2.thisIndex,trials_2.ran,mouse_3.clicked_name,mouse_11.clicked_name,trials_3.thisRepN,trials_3.thisTrialN,trials_3.thisN,trials_3.thisIndex,trials_3.ran,answer1,rt1,answer2,rt2,answer3,rt3,answer4,rt4,answer5,rt5,answer6,rt6,answer7,rt7
space,4.52628,space,42.843635,space,6.579415,61.9,6.19,310.177706,174.4749596,1920,space,17.03793,space,9.425565,123.8,space,13.58382,space,6.64325,space,2.988255,space,6.05017,space,7.57084,space,6.50327,space,14.596365,space,10.033675,space,6.423235,return,4.22388,-8.64,522.607369,0,0,0,0,1,5f40c462ff2ee620d5bc5acd,5fb5dd958d8154000b5e1d65,2020-11-18_20h52.02.060,Colour_Similarity_Experiment,2020.1.2,Win32,60,5fb5945709dec70f2d595766,,,,,,,,,,,,,,,,,,,,,,,,,,,,,,,,,,,,,,,,,,,,,,,,,,,,,,,,,,,,,,,,,,,,,,,,,,,,,,,,,,,,,,,,,,,,,,,,,,,,,,,,,,,,,,
,,,,,,,,,,,,,,,,,,,,,,,,,,,,,,,,,,return,3.97894,28.8,497.4136887,1,0,1,0,1,5f40c462ff2ee620d5bc5acd,5fb5dd958d8154000b5e1d65,2020-11-18_20h52.02.060,Colour_Similarity_Experiment,2020.1.2,Win32,60,5fb5945709dec70f2d595766,,,,,,,,,,,,,,,,,,,,,,,,,,,,,,,,,,,,,,,,,,,,,,,,,,,,,,,,,,,,,,,,,,,,,,,,,,,,,,,,,,,,,,,,,,,,,,,,,,,,,,,,,,,,,,
,,,,,,,,,,,,,,,,,,,,,,,,,,,,,,,,,,return,4.073925,14.4,507.1035657,2,0,2,0,1,5f40c462ff2ee620d5bc5acd,5fb5dd958d8154000b5e1d65,2020-11-18_20h52.02.060,Colour_Similarity_Experiment,2020.1.2,Win32,60,5fb5945709dec70f2d595766,,,,,,,,,,,,,,,,,,,,,,,,,,,,,,,,,,,,,,,,,,,,,,,,,,,,,,,,,,,,,,,,,,,,,,,,,,,,,,,,,,,,,,,,,,,,,,,,,,,,,,,,,,,,,,
,,,,,,,,,,,,,,,,,,,,,,,,,,,,,,,,,,return,3.8836,48.96,483.8478608,3,0,3,0,1,5f40c462ff2ee620d5bc5acd,5fb5dd958d8154000b5e1d65,2020-11-18_20h52.02.060,Colour_Similarity_Experiment,2020.1.2,Win32,60,5fb5945709dec70f2d595766,,,,,,,,,,,,,,,,,,,,,,,,,,,,,,,,,,,,,,,,,,,,,,,,,,,,,,,,,,,,,,,,,,,,,,,,,,,,,,,,,,,,,,,,,,,,,,,,,,,,,,,,,,,,,,
,,,,,,,,,,,,,,,,,,,,,,,,,,,,,,,,,,return,3.67838,86.4,458.6541805,4,0,4,0,1,5f40c462ff2ee620d5bc5acd,5fb5dd958d8154000b5e1d65,2020-11-18_20h52.02.060,Colour_Similarity_Experiment,2020.1.2,Win32,60,5fb5945709dec70f2d595766,,,,,,,,,,,,,,,,,,,,,,,,,,,,,,,,,,,,,,,,,,,,,,,,,,,,,,,,,,,,,,,,,,,,,,,,,,,,,,,,,,,,,,,,,,,,,,,,,,,,,,,,,,,,,,
,,,,,,,,,,,,,,,,,,,,,,,,,,,,,,,,,,,,,,,,,,,5f40c462ff2ee620d5bc5acd,5fb5dd958d8154000b5e1d65,2020-11-18_20h52.02.060,Colour_Similarity_Experiment,2020.1.2,Win32,60,5fb5945709dec70f2d595766,49,8.552978756,79.41440775,529.429385,52.9429385,238.2432232,space,4.214735,space,8.54549,space,24.460325,space,5.773635,space,4.92685,space,4.810055,6,FF,74,105,1,0,0,response1disk_5,1,7,7.098635,-8,-1,1,0,0,rectangle_8,-8,-1,1,0,0,3,-8,-1,1,0,0,0,0,0,3,1,,,,,,,,,,,,,,,,,,,,,,,,,,,,,,,,,,,,,,,,,,,,,,,,,,,,,,,,,,,
,,,,,,,,,,,,,,,,,,,,,,,,,,,,,,,,,,,,,,,,,,,5f40c462ff2ee620d5bc5acd,5fb5dd958d8154000b5e1d65,2020-11-18_20h52.02.060,Colour_Similarity_Experiment,2020.1.2,Win32,60,5fb5945709dec70f2d595766,,,,,,,,,,,,,,,,,,,8,PF,117,-55,1,0,0,response3disk_5,9,5,4.72154,-15,5,1,0,0,rectangle_8,-15,5,1,0,0,3,-15,5,1,0,0,0,1,1,2,1,,,,,,,,,,,,,,,,,,,,,,,,,,,,,,,,,,,,,,,,,,,,,,,,,,,,,,,,,,,
,,,,,,,,,,,,,,,,,,,,,,,,,,,,,,,,,,,,,,,,,,,5f40c462ff2ee620d5bc5acd,5fb5dd958d8154000b5e1d65,2020-11-18_20h52.02.060,Colour_Similarity_Experiment,2020.1.2,Win32,60,5fb5945709dec70f2d595766,,,,,,,,,,,,,,,,,,,8,PF,120,-63,1,0,0,response3disk_5,5,5,6.886595,-9,-7,1,0,0,rectangle_8,-9,-7,1,0,0,3,-9,-7,1,0,0,0,2,2,1,1,,,,,,,,,,,,,,,,,,,,,,,,,,,,,,,,,,,,,,,,,,,,,,,,,,,,,,,,,,,
,,,,,,,,,,,,,,,,,,,,,,,,,,,,,,,,,,,,,,,,,,,5f40c462ff2ee620d5bc5acd,5fb5dd958d8154000b5e1d65,2020-11-18_20h52.02.060,Colour_Similarity_Experiment,2020.1.2,Win32,60,5fb5945709dec70f2d595766,,,,,,,,,,,,,,,,,,,8,PF,119,-87,1,0,0,response3disk_5,4,5,4.40432,-11,-3,1,0,0,rectangle_8,-51,-132,1,0,0,3,-16,-3,1,0,0,0,3,3,4,1,response5disk_7,3,rectangle_4,,,,,,,,,,,,,,,,,,,,,,,,,,,,,,,,,,,,,,,,,,,,,,,,,,,,,,,,
,,,,,,,,,,,,,,,,,,,,,,,,,,,,,,,,,,,,,,,,,,,5f40c462ff2ee620d5bc5acd,5fb5dd958d8154000b5e1d65,2020-11-18_20h52.02.060,Colour_Similarity_Experiment,2020.1.2,Win32,60,5fb5945709dec70f2d595766,,,,,,,,,,,,,,,,,,,9,PF,119,36,1,0,0,response1disk_5,4,6,9.838745,3,-8,1,0,0,rectangle_8,3,-8,1,0,0,3,3,-8,1,0,0,0,4,4,6,1,,,,,,,,,,,,,,,,,,,,,,,,,,,,,,,,,,,,,,,,,,,,,,,,,,,,,,,,,,,
,,,,,,,,,,,,,,,,,,,,,,,,,,,,,,,,,,,,,,,,,,,5f40c462ff2ee620d5bc5acd,5fb5dd958d8154000b5e1d65,2020-11-18_20h52.02.060,Colour_Similarity_Experiment,2020.1.2,Win32,60,5fb5945709dec70f2d595766,,,,,,,,,,,,,,,,,,,4,FF,32,-111,1,0,0,response3disk_5,7,4,5.234165,-8,-11,1,0,0,rectangle_8,-8,-11,1,0,0,3,-8,-11,1,0,0,0,5,5,0,1,,,,,,,,,,,,,,,,,,,,,,,,,,,,,,,,,,,,,,,,,,,,,,,,,,,,,,,,,,,
,,,,,,,,,,,,,,,,,,,,,,,,,,,,,,,,,,,,,,,,,,,5f40c462ff2ee620d5bc5acd,5fb5dd958d8154000b5e1d65,2020-11-18_20h52.02.060,Colour_Similarity_Experiment,2020.1.2,Win32,60,5fb5945709dec70f2d595766,,,,,,,,,,,,,,,,,,,4,FF,76,114,1,0,0,response1disk_5,1,7,5.523775,11,15,1,0,0,rectangle_8,11,15,1,0,0,3,11,15,1,0,0,0,6,6,5,1,,,,,,,,,,,,,,,,,,,,,,,,,,,,,,,,,,,,,,,,,,,,,,,,,,,,,,,,,,,
,,,,,,,,,,,,,,,,,,,,,,,,,,,,,,,,,,,,,,,,,,,5f40c462ff2ee620d5bc5acd,5fb5dd958d8154000b5e1d65,2020-11-18_20h52.02.060,Colour_Similarity_Experiment,2020.1.2,Win32,60,5fb5945709dec70f2d595766,,,,,,,,,,,,,,,,,,,,PF,,,,,,,,7,8.95969,,,,,,,,,,,,,,,,,,,,,,,,,,space,4.11869,6,74,126,1,0,0,response1disk,9,10,6,1,0,0,rectangle,10,6,1,0,0,,3,"[116,291,261,148,47,6,36,50,154,195,303,67,191,15,63,252,268,53,232,193]",10,6,1,0,0,0,1,0,0,45,1,,,,,,,,,,,,,,,,,,,,,
,,,,,,,,,,,,,,,,,,,,,,,,,,,,,,,,,,,,,,,,,,,5f40c462ff2ee620d5bc5acd,5fb5dd958d8154000b5e1d65,2020-11-18_20h52.02.060,Colour_Similarity_Experiment,2020.1.2,Win32,60,5fb5945709dec70f2d595766,,,,,,,,,,,,,,,,,,,,PF,,,,,,,,2,11.36993,,,,,,,,,,,,,,,,,,,,,,,,,,,,5,-145,-44,1,0,0,response5disk,4,9,5,1,0,0,rectangle,9,5,1,0,0,,1,"[116,291,261,148,47,6,36,50,154,195,303,67,191,15,63,252,268,53,232,193]",9,5,1,0,0,0,2,1,1,54,1,,,,,,,,,,,,,,,,,,,,,
,,,,,,,,,,,,,,,,,,,,,,,,,,,,,,,,,,,,,,,,,,,5f40c462ff2ee620d5bc5acd,5fb5dd958d8154000b5e1d65,2020-11-18_20h52.02.060,Colour_Similarity_Experiment,2020.1.2,Win32,60,5fb5945709dec70f2d595766,,,,,,,,,,,,,,,,,,,,FF,,,,,,,,6,4.35484,,,,,,,,,,,,,,,,,,,,,,,,,,,,6,135,56,1,0,0,response1disk,3,15,0,1,0,0,rectangle,15,0,1,0,0,,6,"[116,291,261,148,47,6,36,50,154,195,303,67,191,15,63,252,268,53,232,193]",15,0,1,0,0,0,3,2,2,21,1,,,,,,,,,,,,,,,,,,,,,
,,,,,,,,,,,,,,,,,,,,,,,,,,,,,,,,,,,,,,,,,,,5f40c462ff2ee620d5bc5acd,5fb5dd958d8154000b5e1d65,2020-11-18_20h52.02.060,Colour_Similarity_Experiment,2020.1.2,Win32,60,5fb5945709dec70f2d595766,,,,,,,,,,,,,,,,,,,,FF,,,,,,,,7,7.22966,,,,,,,,,,,,,,,,,,,,,,,,,,,,8,46,123,1,0,0,response1disk,5,-1,20,1,0,0,rectangle,-1,20,1,0,0,,4,"[116,291,261,148,47,6,36,50,154,195,303,67,191,15,63,252,268,53,232,193]",-1,20,1,0,0,0,4,3,3,152,1,,,,,,,,,,,,,,,,,,,,,
,,,,,,,,,,,,,,,,,,,,,,,,,,,,,,,,,,,,,,,,,,,5f40c462ff2ee620d5bc5acd,5fb5dd958d8154000b5e1d65,2020-11-18_20h52.02.060,Colour_Similarity_Experiment,2020.1.2,Win32,60,5fb5945709dec70f2d595766,,,,,,,,,,,,,,,,,,,,FF,,,,,,,,7,2.95693,,,,,,,,,,,,,,,,,,,,,,,,,,,,1,61,122,1,0,0,response1disk,4,8,19,1,0,0,rectangle,8,19,1,0,0,,0,"[116,291,261,148,47,6,36,50,154,195,303,67,191,15,63,252,268,53,232,193]",8,19,1,0,0,0,5,4,4,135,1,,,,,,,,,,,,,,,,,,,,,
,,,,,,,,,,,,,,,,,,,,,,,,,,,,,,,,,,,,,,,,,,,5f40c462ff2ee620d5bc5acd,5fb5dd958d8154000b5e1d65,2020-11-18_20h52.02.060,Colour_Similarity_Experiment,2020.1.2,Win32,60,5fb5945709dec70f2d595766,,,,,,,,,,,,,,,,,,,,FF,,,,,,,,6,3.636625,,,,,,,,,,,,,,,,,,,,,,,,,,,,7,110,95,1,0,0,response1disk,5,0,18,1,0,0,rectangle,-169,69,1,0,0,1,1,"[116,291,261,148,47,6,36,50,154,195,303,67,191,15,63,252,268,53,232,193]",-11,14,1,0,0,0,6,5,5,156,1,response7disk_3,rectangle,,,,,,,,,,,,,,,,,,,
,,,,,,,,,,,,,,,,,,,,,,,,,,,,,,,,,,,,,,,,,,,5f40c462ff2ee620d5bc5acd,5fb5dd958d8154000b5e1d65,2020-11-18_20h52.02.060,Colour_Similarity_Experiment,2020.1.2,Win32,60,5fb5945709dec70f2d595766,,,,,,,,,,,,,,,,,,,,FF,,,,,,,,0,5.16534,,,,,,,,,,,,,,,,,,,,,,,,,,,,8,-64,141,1,0,0,response7disk,8,-12,2,1,0,0,rectangle,-12,2,1,0,0,1,0,"[116,291,261,148,47,6,36,50,154,195,303,67,191,15,63,252,268,53,232,193]",-12,2,1,0,0,0,7,6,6,48,1,,,,,,,,,,,,,,,,,,,,,
,,,,,,,,,,,,,,,,,,,,,,,,,,,,,,,,,,,,,,,,,,,5f40c462ff2ee620d5bc5acd,5fb5dd958d8154000b5e1d65,2020-11-18_20h52.02.060,Colour_Similarity_Experiment,2020.1.2,Win32,60,5fb5945709dec70f2d595766,,,,,,,,,,,,,,,,,,,,PF,,,,,,,,2,3.99974,,,,,,,,,,,,,,,,,,,,,,,,,,,,5,-128,-67,1,0,0,response5disk,3,-20,-5,1,0,0,rectangle,-20,-5,1,0,0,1,2,"[116,291,261,148,47,6,36,50,154,195,303,67,191,15,63,252,268,53,232,193]",-20,-5,1,0,0,0,8,7,7,109,1,,,,,,,,,,,,,,,,,,,,,
,,,,,,,,,,,,,,,,,,,,,,,,,,,,,,,,,,,,,,,,,,,5f40c462ff2ee620d5bc5acd,5fb5dd958d8154000b5e1d65,2020-11-18_20h52.02.060,Colour_Similarity_Experiment,2020.1.2,Win32,60,5fb5945709dec70f2d595766,,,,,,,,,,,,,,,,,,,,FF,,,,,,,,0,4.476645,,,,,,,,,,,,,,,,,,,,,,,,,,,,2,-51,135,1,0,0,response7disk,2,-3,-4,1,0,0,rectangle,-3,-4,1,0,0,1,7,"[116,291,261,148,47,6,36,50,154,195,303,67,191,15,63,252,268,53,232,193]",-3,-4,1,0,0,0,9,8,8,142,1,,,,,,,,,,,,,,,,,,,,,
,,,,,,,,,,,,,,,,,,,,,,,,,,,,,,,,,,,,,,,,,,,5f40c462ff2ee620d5bc5acd,5fb5dd958d8154000b5e1d65,2020-11-18_20h52.02.060,Colour_Similarity_Experiment,2020.1.2,Win32,60,5fb5945709dec70f2d595766,,,,,,,,,,,,,,,,,,,,PF,,,,,,,,3,7.26012,,,,,,,,,,,,,,,,,,,,,,,,,,,,7,-36,-132,1,0,0,response5disk,8,-10,1,1,0,0,rectangle,-10,1,1,0,0,1,7,"[116,291,261,148,47,6,36,50,154,195,303,67,191,15,63,252,268,53,232,193]",-10,1,1,0,0,0,10,9,9,140,1,,,,,,,,,,,,,,,,,,,,,
,,,,,,,,,,,,,,,,,,,,,,,,,,,,,,,,,,,,,,,,,,,5f40c462ff2ee620d5bc5acd,5fb5dd958d8154000b5e1d65,2020-11-18_20h52.02.060,Colour_Similarity_Experiment,2020.1.2,Win32,60,5fb5945709dec70f2d595766,,,,,,,,,,,,,,,,,,,,FF,,,,,,,,3,2.83516,,,,,,,,,,,,,,,,,,,,,,,,,,,,9,-83,-104,1,0,0,response5disk,1,-12,-5,1,0,0,rectangle,-12,-5,1,0,0,1,6,"[116,291,261,148,47,6,36,50,154,195,303,67,191,15,63,252,268,53,232,193]",-12,-5,1,0,0,0,11,10,10,111,1,,,,,,,,,,,,,,,,,,,,,
,,,,,,,,,,,,,,,,,,,,,,,,,,,,,,,,,,,,,,,,,,,5f40c462ff2ee620d5bc5acd,5fb5dd958d8154000b5e1d65,2020-11-18_20h52.02.060,Colour_Similarity_Experiment,2020.1.2,Win32,60,5fb5945709dec70f2d595766,,,,,,,,,,,,,,,,,,,,FF,,,,,,,,2,4.68907,,,,,,,,,,,,,,,,,,,,,,,,,,,,3,-136,-50,1,0,0,response5disk,4,-7,-11,1,0,0,rectangle,-7,-11,1,0,0,1,3,"[116,291,261,148,47,6,36,50,154,195,303,67,191,15,63,252,268,53,232,193]",-7,-11,1,0,0,0,12,11,11,110,1,,,,,,,,,,,,,,,,,,,,,
,,,,,,,,,,,,,,,,,,,,,,,,,,,,,,,,,,,,,,,,,,,5f40c462ff2ee620d5bc5acd,5fb5dd958d8154000b5e1d65,2020-11-18_20h52.02.060,Colour_Similarity_Experiment,2020.1.2,Win32,60,5fb5945709dec70f2d595766,,,,,,,,,,,,,,,,,,,,FF,,,,,,,,7,3.194525,,,,,,,,,,,,,,,,,,,,,,,,,,,,6,53,125,1,0,0,response1disk,1,2,12,1,0,0,rectangle,2,12,1,0,0,1,7,"[116,291,261,148,47,6,36,50,154,195,303,67,191,15,63,252,268,53,232,193]",2,12,1,0,0,0,13,12,12,5,1,,,,,,,,,,,,,,,,,,,,,
,,,,,,,,,,,,,,,,,,,,,,,,,,,,,,,,,,,,,,,,,,,5f40c462ff2ee620d5bc5acd,5fb5dd958d8154000b5e1d65,2020-11-18_20h52.02.060,Colour_Similarity_Experiment,2020.1.2,Win32,60,5fb5945709dec70f2d595766,,,,,,,,,,,,,,,,,,,,PF,,,,,,,,7,1.477165,,,,,,,,,,,,,,,,,,,,,,,,,,,,7,53,116,1,0,0,response1disk,1,-27,2,1,0,0,rectangle,-27,2,1,0,0,1,7,"[116,291,261,148,47,6,36,50,154,195,303,67,191,15,63,252,268,53,232,193]",-27,2,1,0,0,0,14,13,13,53,1,,,,,,,,,,,,,,,,,,,,,
,,,,,,,,,,,,,,,,,,,,,,,,,,,,,,,,,,,,,,,,,,,5f40c462ff2ee620d5bc5acd,5fb5dd958d8154000b5e1d65,2020-11-18_20h52.02.060,Colour_Similarity_Experiment,2020.1.2,Win32,60,5fb5945709dec70f2d595766,,,,,,,,,,,,,,,,,,,,PF,,,,,,,,2,5.32983,,,,,,,,,,,,,,,,,,,,,,,,,,,,9,-141,-51,1,0,0,response5disk,9,-17,-3,1,0,0,rectangle,63,136,1,0,0,7,7,"[116,291,261,148,47,6,36,50,154,195,303,67,191,15,63,252,268,53,232,193]",2,7,1,0,0,0,15,14,14,106,1,response1disk_3,rectangle,,,,,,,,,,,,,,,,,,,
,,,,,,,,,,,,,,,,,,,,,,,,,,,,,,,,,,,,,,,,,,,5f40c462ff2ee620d5bc5acd,5fb5dd958d8154000b5e1d65,2020-11-18_20h52.02.060,Colour_Similarity_Experiment,2020.1.2,Win32,60,5fb5945709dec70f2d595766,,,,,,,,,,,,,,,,,,,,FF,,,,,,,,6,5.11809,,,,,,,,,,,,,,,,,,,,,,,,,,,,7,129,48,1,0,0,response1disk,4,-5,4,1,0,0,rectangle,-5,4,1,0,0,7,4,"[116,291,261,148,47,6,36,50,154,195,303,67,191,15,63,252,268,53,232,193]",-5,4,1,0,0,0,16,15,15,158,1,,,,,,,,,,,,,,,,,,,,,
,,,,,,,,,,,,,,,,,,,,,,,,,,,,,,,,,,,,,,,,,,,5f40c462ff2ee620d5bc5acd,5fb5dd958d8154000b5e1d65,2020-11-18_20h52.02.060,Colour_Similarity_Experiment,2020.1.2,Win32,60,5fb5945709dec70f2d595766,,,,,,,,,,,,,,,,,,,,FF,,,,,,,,7,2.33809,,,,,,,,,,,,,,,,,,,,,,,,,,,,2,44,143,1,0,0,response1disk,4,1,3,1,0,0,rectangle,1,3,1,0,0,7,7,"[116,291,261,148,47,6,36,50,154,195,303,67,191,15,63,252,268,53,232,193]",1,3,1,0,0,0,17,16,16,145,1,,,,,,,,,,,,,,,,,,,,,
,,,,,,,,,,,,,,,,,,,,,,,,,,,,,,,,,,,,,,,,,,,5f40c462ff2ee620d5bc5acd,5fb5dd958d8154000b5e1d65,2020-11-18_20h52.02.060,Colour_Similarity_Experiment,2020.1.2,Win32,60,5fb5945709dec70f2d595766,,,,,,,,,,,,,,,,,,,,FF,,,,,,,,7,1.90279,,,,,,,,,,,,,,,,,,,,,,,,,,,,6,51,141,1,0,0,response1disk,4,2,8,1,0,0,rectangle,2,8,1,0,0,7,3,"[116,291,261,148,47,6,36,50,154,195,303,67,191,15,63,252,268,53,232,193]",2,8,1,0,0,0,18,17,17,56,1,,,,,,,,,,,,,,,,,,,,,
,,,,,,,,,,,,,,,,,,,,,,,,,,,,,,,,,,,,,,,,,,,5f40c462ff2ee620d5bc5acd,5fb5dd958d8154000b5e1d65,2020-11-18_20h52.02.060,Colour_Similarity_Experiment,2020.1.2,Win32,60,5fb5945709dec70f2d595766,,,,,,,,,,,,,,,,,,,,FF,,,,,,,,7,5.218565,,,,,,,,,,,,,,,,,,,,,,,,,,,,3,57,125,1,0,0,response1disk,1,1,12,1,0,0,rectangle,1,12,1,0,0,7,0,"[116,291,261,148,47,6,36,50,154,195,303,67,191,15,63,252,268,53,232,193]",1,12,1,0,0,0,19,18,18,125,1,,,,,,,,,,,,,,,,,,,,,
,,,,,,,,,,,,,,,,,,,,,,,,,,,,,,,,,,,,,,,,,,,5f40c462ff2ee620d5bc5acd,5fb5dd958d8154000b5e1d65,2020-11-18_20h52.02.060,Colour_Similarity_Experiment,2020.1.2,Win32,60,5fb5945709dec70f2d595766,,,,,,,,,,,,,,,,,,,,FF,,,,,,,,7,2.90158,,,,,,,,,,,,,,,,,,,,,,,,,,,,1,68,129,1,0,0,response1disk,5,-7,2,1,0,0,rectangle,-7,2,1,0,0,7,3,"[116,291,261,148,47,6,36,50,154,195,303,67,191,15,63,252,268,53,232,193]",-7,2,1,0,0,0,20,19,19,82,1,,,,,,,,,,,,,,,,,,,,,
,,,,,,,,,,,,,,,,,,,,,,,,,,,,,,,,,,,,,,,,,,,5f40c462ff2ee620d5bc5acd,5fb5dd958d8154000b5e1d65,2020-11-18_20h52.02.060,Colour_Similarity_Experiment,2020.1.2,Win32,60,5fb5945709dec70f2d595766,,,,,,,,,,,,,,,,,,,,PF,,,,,,,,0,8.49042,,,,,,,,,,,,,,,,,,,,,,,,,,,,4,-81,141,1,0,0,response7disk,4,-5,-2,1,0,0,rectangle,-5,-2,1,0,0,7,0,"[116,291,261,148,47,6,36,50,154,195,303,67,191,15,63,252,268,53,232,193]",-5,-2,1,0,0,0,21,20,20,70,1,,,,,,,,,,,,,,,,,,,,,
,,,,,,,,,,,,,,,,,,,,,,,,,,,,,,,,,,,,,,,,,,,5f40c462ff2ee620d5bc5acd,5fb5dd958d8154000b5e1d65,2020-11-18_20h52.02.060,Colour_Similarity_Experiment,2020.1.2,Win32,60,5fb5945709dec70f2d595766,,,,,,,,,,,,,,,,,,,,PF,,,,,,,,6,5.00022,,,,,,,,,,,,,,,,,,,,,,,,,,,,8,128,37,1,0,0,response1disk,3,10,10,1,0,0,rectangle,10,10,1,0,0,7,7,"[116,291,261,148,47,6,36,50,154,195,303,67,191,15,63,252,268,53,232,193]",10,10,1,0,0,0,22,21,21,71,1,,,,,,,,,,,,,,,,,,,,,
,,,,,,,,,,,,,,,,,,,,,,,,,,,,,,,,,,,,,,,,,,,5f40c462ff2ee620d5bc5acd,5fb5dd958d8154000b5e1d65,2020-11-18_20h52.02.060,Colour_Similarity_Experiment,2020.1.2,Win32,60,5fb5945709dec70f2d595766,,,,,,,,,,,,,,,,,,,,PF,,,,,,,,7,6.09742,,,,,,,,,,,,,,,,,,,,,,,,,,,,5,54,139,1,0,0,response1disk,6,-7,5,1,0,0,rectangle,-7,5,1,0,0,7,7,"[116,291,261,148,47,6,36,50,154,195,303,67,191,15,63,252,268,53,232,193]",-7,5,1,0,0,0,23,22,22,103,1,,,,,,,,,,,,,,,,,,,,,
,,,,,,,,,,,,,,,,,,,,,,,,,,,,,,,,,,,,,,,,,,,5f40c462ff2ee620d5bc5acd,5fb5dd958d8154000b5e1d65,2020-11-18_20h52.02.060,Colour_Similarity_Experiment,2020.1.2,Win32,60,5fb5945709dec70f2d595766,,,,,,,,,,,,,,,,,,,,FF,,,,,,,,7,1.629445,,,,,,,,,,,,,,,,,,,,,,,,,,,,4,55,97,1,0,0,response1disk,8,9,5,1,0,0,rectangle,9,5,1,0,0,7,7,"[116,291,261,148,47,6,36,50,154,195,303,67,191,15,63,252,268,53,232,193]",9,5,1,0,0,0,24,23,23,35,1,,,,,,,,,,,,,,,,,,,,,
,,,,,,,,,,,,,,,,,,,,,,,,,,,,,,,,,,,,,,,,,,,5f40c462ff2ee620d5bc5acd,5fb5dd958d8154000b5e1d65,2020-11-18_20h52.02.060,Colour_Similarity_Experiment,2020.1.2,Win32,60,5fb5945709dec70f2d595766,,,,,,,,,,,,,,,,,,,,FF,,,,,,,,7,1.487815,,,,,,,,,,,,,,,,,,,,,,,,,,,,6,44,69,1,0,0,response1disk,9,10,12,1,0,0,rectangle,10,12,1,0,0,7,2,"[116,291,261,148,47,6,36,50,154,195,303,67,191,15,63,252,268,53,232,193]",10,12,1,0,0,0,25,24,24,160,1,,,,,,,,,,,,,,,,,,,,,
,,,,,,,,,,,,,,,,,,,,,,,,,,,,,,,,,,,,,,,,,,,5f40c462ff2ee620d5bc5acd,5fb5dd958d8154000b5e1d65,2020-11-18_20h52.02.060,Colour_Similarity_Experiment,2020.1.2,Win32,60,5fb5945709dec70f2d595766,,,,,,,,,,,,,,,,,,,,PF,,,,,,,,3,3.17454,,,,,,,,,,,,,,,,,,,,,,,,,,,,3,-106,-138,1,0,0,response5disk,2,-8,-5,1,0,0,rectangle,-8,-5,1,0,0,7,3,"[116,291,261,148,47,6,36,50,154,195,303,67,191,15,63,252,268,53,232,193]",-8,-5,1,0,0,0,26,25,25,36,1,,,,,,,,,,,,,,,,,,,,,
,,,,,,,,,,,,,,,,,,,,,,,,,,,,,,,,,,,,,,,,,,,5f40c462ff2ee620d5bc5acd,5fb5dd958d8154000b5e1d65,2020-11-18_20h52.02.060,Colour_Similarity_Experiment,2020.1.2,Win32,60,5fb5945709dec70f2d595766,,,,,,,,,,,,,,,,,,,,FF,,,,,,,,0,1.51871,,,,,,,,,,,,,,,,,,,,,,,,,,,,5,-46,143,1,0,0,response7disk,5,-5,4,1,0,0,rectangle,-5,4,1,0,0,7,1,"[116,291,261,148,47,6,36,50,154,195,303,67,191,15,63,252,268,53,232,193]",-5,4,1,0,0,0,27,26,26,19,1,,,,,,,,,,,,,,,,,,,,,
,,,,,,,,,,,,,,,,,,,,,,,,,,,,,,,,,,,,,,,,,,,5f40c462ff2ee620d5bc5acd,5fb5dd958d8154000b5e1d65,2020-11-18_20h52.02.060,Colour_Similarity_Experiment,2020.1.2,Win32,60,5fb5945709dec70f2d595766,,,,,,,,,,,,,,,,,,,,PF,,,,,,,,3,2.08993,,,,,,,,,,,,,,,,,,,,,,,,,,,,9,-85,-123,1,0,0,response5disk,1,-2,4,1,0,0,rectangle,-2,4,1,0,0,7,4,"[116,291,261,148,47,6,36,50,154,195,303,67,191,15,63,252,268,53,232,193]",-2,4,1,0,0,0,28,27,27,74,1,,,,,,,,,,,,,,,,,,,,,
,,,,,,,,,,,,,,,,,,,,,,,,,,,,,,,,,,,,,,,,,,,5f40c462ff2ee620d5bc5acd,5fb5dd958d8154000b5e1d65,2020-11-18_20h52.02.060,Colour_Similarity_Experiment,2020.1.2,Win32,60,5fb5945709dec70f2d595766,,,,,,,,,,,,,,,,,,,,FF,,,,,,,,7,1.490935,,,,,,,,,,,,,,,,,,,,,,,,,,,,1,62,115,1,0,0,response1disk,6,2,-4,1,0,0,rectangle,2,-4,1,0,0,7,4,"[116,291,261,148,47,6,36,50,154,195,303,67,191,15,63,252,268,53,232,193]",2,-4,1,0,0,0,29,28,28,58,1,,,,,,,,,,,,,,,,,,,,,
,,,,,,,,,,,,,,,,,,,,,,,,,,,,,,,,,,,,,,,,,,,5f40c462ff2ee620d5bc5acd,5fb5dd958d8154000b5e1d65,2020-11-18_20h52.02.060,Colour_Similarity_Experiment,2020.1.2,Win32,60,5fb5945709dec70f2d595766,,,,,,,,,,,,,,,,,,,,PF,,,,,,,,7,1.49713,,,,,,,,,,,,,,,,,,,,,,,,,,,,8,55,128,1,0,0,response1disk,1,3,3,1,0,0,rectangle,3,3,1,0,0,7,3,"[116,291,261,148,47,6,36,50,154,195,303,67,191,15,63,252,268,53,232,193]",3,3,1,0,0,0,30,29,29,57,1,,,,,,,,,,,,,,,,,,,,,
,,,,,,,,,,,,,,,,,,,,,,,,,,,,,,,,,,,,,,,,,,,5f40c462ff2ee620d5bc5acd,5fb5dd958d8154000b5e1d65,2020-11-18_20h52.02.060,Colour_Similarity_Experiment,2020.1.2,Win32,60,5fb5945709dec70f2d595766,,,,,,,,,,,,,,,,,,,,FF,,,,,,,,7,2.33046,,,,,,,,,,,,,,,,,,,,,,,,,,,,8,61,143,1,0,0,response1disk,4,-2,-10,1,0,0,rectangle,-2,-10,1,0,0,7,3,"[116,291,261,148,47,6,36,50,154,195,303,67,191,15,63,252,268,53,232,193]",-2,-10,1,0,0,0,31,30,30,88,1,,,,,,,,,,,,,,,,,,,,,
,,,,,,,,,,,,,,,,,,,,,,,,,,,,,,,,,,,,,,,,,,,5f40c462ff2ee620d5bc5acd,5fb5dd958d8154000b5e1d65,2020-11-18_20h52.02.060,Colour_Similarity_Experiment,2020.1.2,Win32,60,5fb5945709dec70f2d595766,,,,,,,,,,,,,,,,,,,,PF,,,,,,,,7,1.72868,,,,,,,,,,,,,,,,,,,,,,,,,,,,7,49,122,1,0,0,response1disk,3,13,-1,1,0,0,rectangle,13,-1,1,0,0,7,3,"[116,291,261,148,47,6,36,50,154,195,303,67,191,15,63,252,268,53,232,193]",13,-1,1,0,0,0,32,31,31,81,1,,,,,,,,,,,,,,,,,,,,,
,,,,,,,,,,,,,,,,,,,,,,,,,,,,,,,,,,,,,,,,,,,5f40c462ff2ee620d5bc5acd,5fb5dd958d8154000b5e1d65,2020-11-18_20h52.02.060,Colour_Similarity_Experiment,2020.1.2,Win32,60,5fb5945709dec70f2d595766,,,,,,,,,,,,,,,,,,,,FF,,,,,,,,7,4.282115,,,,,,,,,,,,,,,,,,,,,,,,,,,,4,52,134,1,0,0,response1disk,1,-3,16,1,0,0,rectangle,-3,16,1,0,0,7,6,"[116,291,261,148,47,6,36,50,154,195,303,67,191,15,63,252,268,53,232,193]",-3,16,1,0,0,0,33,32,32,102,1,,,,,,,,,,,,,,,,,,,,,
,,,,,,,,,,,,,,,,,,,,,,,,,,,,,,,,,,,,,,,,,,,5f40c462ff2ee620d5bc5acd,5fb5dd958d8154000b5e1d65,2020-11-18_20h52.02.060,Colour_Similarity_Experiment,2020.1.2,Win32,60,5fb5945709dec70f2d595766,,,,,,,,,,,,,,,,,,,,FF,,,,,,,,6,2.048305,,,,,,,,,,,,,,,,,,,,,,,,,,,,8,99,58,1,0,0,response1disk,6,-25,-1,1,0,0,rectangle,-25,-1,1,0,0,7,1,"[116,291,261,148,47,6,36,50,154,195,303,67,191,15,63,252,268,53,232,193]",-25,-1,1,0,0,0,34,33,33,37,1,,,,,,,,,,,,,,,,,,,,,
,,,,,,,,,,,,,,,,,,,,,,,,,,,,,,,,,,,,,,,,,,,5f40c462ff2ee620d5bc5acd,5fb5dd958d8154000b5e1d65,2020-11-18_20h52.02.060,Colour_Similarity_Experiment,2020.1.2,Win32,60,5fb5945709dec70f2d595766,,,,,,,,,,,,,,,,,,,,FF,,,,,,,,7,3.15279,,,,,,,,,,,,,,,,,,,,,,,,,,,,5,50,153,1,0,0,response1disk,1,-9,10,1,0,0,rectangle,-9,10,1,0,0,7,3,"[116,291,261,148,47,6,36,50,154,195,303,67,191,15,63,252,268,53,232,193]",-9,10,1,0,0,0,35,34,34,131,1,,,,,,,,,,,,,,,,,,,,,
,,,,,,,,,,,,,,,,,,,,,,,,,,,,,,,,,,,,,,,,,,,5f40c462ff2ee620d5bc5acd,5fb5dd958d8154000b5e1d65,2020-11-18_20h52.02.060,Colour_Similarity_Experiment,2020.1.2,Win32,60,5fb5945709dec70f2d595766,,,,,,,,,,,,,,,,,,,,PF,,,,,,,,7,4.45816,,,,,,,,,,,,,,,,,,,,,,,,,,,,9,57,117,1,0,0,response1disk,3,5,5,1,0,0,rectangle,48,133,1,0,0,7,7,"[116,291,261,148,47,6,36,50,154,195,303,67,191,15,63,252,268,53,232,193]",5,-3,1,0,0,0,36,35,35,119,1,response1disk_3,rectangle,,,,,,,,,,,,,,,,,,,
,,,,,,,,,,,,,,,,,,,,,,,,,,,,,,,,,,,,,,,,,,,5f40c462ff2ee620d5bc5acd,5fb5dd958d8154000b5e1d65,2020-11-18_20h52.02.060,Colour_Similarity_Experiment,2020.1.2,Win32,60,5fb5945709dec70f2d595766,,,,,,,,,,,,,,,,,,,,FF,,,,,,,,5,2.3403,,,,,,,,,,,,,,,,,,,,,,,,,,,,1,127,-39,1,0,0,response3disk,2,-1,-4,1,0,0,rectangle,-1,-4,1,0,0,7,0,"[116,291,261,148,47,6,36,50,154,195,303,67,191,15,63,252,268,53,232,193]",-1,-4,1,0,0,0,37,36,36,2,1,,,,,,,,,,,,,,,,,,,,,
,,,,,,,,,,,,,,,,,,,,,,,,,,,,,,,,,,,,,,,,,,,5f40c462ff2ee620d5bc5acd,5fb5dd958d8154000b5e1d65,2020-11-18_20h52.02.060,Colour_Similarity_Experiment,2020.1.2,Win32,60,5fb5945709dec70f2d595766,,,,,,,,,,,,,,,,,,,,PF,,,,,,,,7,1.85139,,,,,,,,,,,,,,,,,,,,,,,,,,,,5,47,117,1,0,0,response1disk,1,5,1,1,0,0,rectangle,5,1,1,0,0,7,1,"[116,291,261,148,47,6,36,50,154,195,303,67,191,15,63,252,268,53,232,193]",5,1,1,0,0,0,38,37,37,159,1,,,,,,,,,,,,,,,,,,,,,
,,,,,,,,,,,,,,,,,,,,,,,,,,,,,,,,,,,,,,,,,,,5f40c462ff2ee620d5bc5acd,5fb5dd958d8154000b5e1d65,2020-11-18_20h52.02.060,Colour_Similarity_Experiment,2020.1.2,Win32,60,5fb5945709dec70f2d595766,,,,,,,,,,,,,,,,,,,,PF,,,,,,,,7,1.35755,,,,,,,,,,,,,,,,,,,,,,,,,,,,3,39,120,1,0,0,response1disk,9,-1,8,1,0,0,rectangle,-1,8,1,0,0,7,1,"[116,291,261,148,47,6,36,50,154,195,303,67,191,15,63,252,268,53,232,193]",-1,8,1,0,0,0,39,38,38,79,1,,,,,,,,,,,,,,,,,,,,,
,,,,,,,,,,,,,,,,,,,,,,,,,,,,,,,,,,,,,,,,,,,5f40c462ff2ee620d5bc5acd,5fb5dd958d8154000b5e1d65,2020-11-18_20h52.02.060,Colour_Similarity_Experiment,2020.1.2,Win32,60,5fb5945709dec70f2d595766,,,,,,,,,,,,,,,,,,,,FF,,,,,,,,7,1.80188,,,,,,,,,,,,,,,,,,,,,,,,,,,,9,47,114,1,0,0,response1disk,6,0,9,1,0,0,rectangle,0,9,1,0,0,7,3,"[116,291,261,148,47,6,36,50,154,195,303,67,191,15,63,252,268,53,232,193]",0,9,1,0,0,0,40,39,39,117,1,,,,,,,,,,,,,,,,,,,,,
,,,,,,,,,,,,,,,,,,,,,,,,,,,,,,,,,,,,,,,,,,,5f40c462ff2ee620d5bc5acd,5fb5dd958d8154000b5e1d65,2020-11-18_20h52.02.060,Colour_Similarity_Experiment,2020.1.2,Win32,60,5fb5945709dec70f2d595766,,,,,,,,,,,,,,,,,,,,PF,,,,,,,,7,2.106875,,,,,,,,,,,,,,,,,,,,,,,,,,,,3,46,139,1,0,0,response1disk,1,-6,2,1,0,0,rectangle,-6,2,1,0,0,7,1,"[116,291,261,148,47,6,36,50,154,195,303,67,191,15,63,252,268,53,232,193]",-6,2,1,0,0,0,41,40,40,96,1,,,,,,,,,,,,,,,,,,,,,
,,,,,,,,,,,,,,,,,,,,,,,,,,,,,,,,,,,,,,,,,,,5f40c462ff2ee620d5bc5acd,5fb5dd958d8154000b5e1d65,2020-11-18_20h52.02.060,Colour_Similarity_Experiment,2020.1.2,Win32,60,5fb5945709dec70f2d595766,,,,,,,,,,,,,,,,,,,,PF,,,,,,,,7,1.775755,,,,,,,,,,,,,,,,,,,,,,,,,,,,9,44,122,1,0,0,response1disk,4,-3,3,1,0,0,rectangle,-3,3,1,0,0,7,7,"[116,291,261,148,47,6,36,50,154,195,303,67,191,15,63,252,268,53,232,193]",-3,3,1,0,0,0,42,41,41,114,1,,,,,,,,,,,,,,,,,,,,,
,,,,,,,,,,,,,,,,,,,,,,,,,,,,,,,,,,,,,,,,,,,5f40c462ff2ee620d5bc5acd,5fb5dd958d8154000b5e1d65,2020-11-18_20h52.02.060,Colour_Similarity_Experiment,2020.1.2,Win32,60,5fb5945709dec70f2d595766,,,,,,,,,,,,,,,,,,,,PF,,,,,,,,7,1.689615,,,,,,,,,,,,,,,,,,,,,,,,,,,,7,52,136,1,0,0,response1disk,9,-5,-4,1,0,0,rectangle,-5,-4,1,0,0,7,6,"[116,291,261,148,47,6,36,50,154,195,303,67,191,15,63,252,268,53,232,193]",-5,-4,1,0,0,0,43,42,42,10,1,,,,,,,,,,,,,,,,,,,,,
,,,,,,,,,,,,,,,,,,,,,,,,,,,,,,,,,,,,,,,,,,,5f40c462ff2ee620d5bc5acd,5fb5dd958d8154000b5e1d65,2020-11-18_20h52.02.060,Colour_Similarity_Experiment,2020.1.2,Win32,60,5fb5945709dec70f2d595766,,,,,,,,,,,,,,,,,,,,PF,,,,,,,,7,2.03347,,,,,,,,,,,,,,,,,,,,,,,,,,,,2,47,122,1,0,0,response1disk,6,-3,5,1,0,0,rectangle,-3,5,1,0,0,7,6,"[116,291,261,148,47,6,36,50,154,195,303,67,191,15,63,252,268,53,232,193]",-3,5,1,0,0,0,44,43,43,113,1,,,,,,,,,,,,,,,,,,,,,
,,,,,,,,,,,,,,,,,,,,,,,,,,,,,,,,,,,,,,,,,,,5f40c462ff2ee620d5bc5acd,5fb5dd958d8154000b5e1d65,2020-11-18_20h52.02.060,Colour_Similarity_Experiment,2020.1.2,Win32,60,5fb5945709dec70f2d595766,,,,,,,,,,,,,,,,,,,,FF,,,,,,,,7,3.34449,,,,,,,,,,,,,,,,,,,,,,,,,,,,9,55,145,1,0,0,response1disk,3,-6,9,1,0,0,rectangle,-6,9,1,0,0,7,5,"[116,291,261,148,47,6,36,50,154,195,303,67,191,15,63,252,268,53,232,193]",-6,9,1,0,0,0,45,44,44,141,1,,,,,,,,,,,,,,,,,,,,,
,,,,,,,,,,,,,,,,,,,,,,,,,,,,,,,,,,,,,,,,,,,5f40c462ff2ee620d5bc5acd,5fb5dd958d8154000b5e1d65,2020-11-18_20h52.02.060,Colour_Similarity_Experiment,2020.1.2,Win32,60,5fb5945709dec70f2d595766,,,,,,,,,,,,,,,,,,,,PF,,,,,,,,7,2.42826,,,,,,,,,,,,,,,,,,,,,,,,,,,,6,55,147,1,0,0,response1disk,3,0,-8,1,0,0,rectangle,0,-8,1,0,0,7,2,"[116,291,261,148,47,6,36,50,154,195,303,67,191,15,63,252,268,53,232,193]",0,-8,1,0,0,0,46,45,45,26,1,,,,,,,,,,,,,,,,,,,,,
,,,,,,,,,,,,,,,,,,,,,,,,,,,,,,,,,,,,,,,,,,,5f40c462ff2ee620d5bc5acd,5fb5dd958d8154000b5e1d65,2020-11-18_20h52.02.060,Colour_Similarity_Experiment,2020.1.2,Win32,60,5fb5945709dec70f2d595766,,,,,,,,,,,,,,,,,,,,FF,,,,,,,,7,1.330775,,,,,,,,,,,,,,,,,,,,,,,,,,,,4,57,115,1,0,0,response1disk,7,-1,1,1,0,0,rectangle,-62,-114,1,0,0,3,3,"[116,291,261,148,47,6,36,50,154,195,303,67,191,15,63,252,268,53,232,193]",-12,-14,1,0,0,0,47,46,46,87,1,response5disk_3,rectangle,,,,,,,,,,,,,,,,,,,
,,,,,,,,,,,,,,,,,,,,,,,,,,,,,,,,,,,,,,,,,,,5f40c462ff2ee620d5bc5acd,5fb5dd958d8154000b5e1d65,2020-11-18_20h52.02.060,Colour_Similarity_Experiment,2020.1.2,Win32,60,5fb5945709dec70f2d595766,,,,,,,,,,,,,,,,,,,,PF,,,,,,,,7,4.72946,,,,,,,,,,,,,,,,,,,,,,,,,,,,9,52,153,1,0,0,response1disk,7,7,-4,1,0,0,rectangle,7,-4,1,0,0,3,5,"[116,291,261,148,47,6,36,50,154,195,303,67,191,15,63,252,268,53,232,193]",7,-4,1,0,0,0,48,47,47,121,1,,,,,,,,,,,,,,,,,,,,,
,,,,,,,,,,,,,,,,,,,,,,,,,,,,,,,,,,,,,,,,,,,5f40c462ff2ee620d5bc5acd,5fb5dd958d8154000b5e1d65,2020-11-18_20h52.02.060,Colour_Similarity_Experiment,2020.1.2,Win32,60,5fb5945709dec70f2d595766,,,,,,,,,,,,,,,,,,,,FF,,,,,,,,7,1.59511,,,,,,,,,,,,,,,,,,,,,,,,,,,,9,46,122,1,0,0,response1disk,5,0,6,1,0,0,rectangle,0,6,1,0,0,3,4,"[116,291,261,148,47,6,36,50,154,195,303,67,191,15,63,252,268,53,232,193]",0,6,1,0,0,0,49,48,48,128,1,,,,,,,,,,,,,,,,,,,,,
,,,,,,,,,,,,,,,,,,,,,,,,,,,,,,,,,,,,,,,,,,,5f40c462ff2ee620d5bc5acd,5fb5dd958d8154000b5e1d65,2020-11-18_20h52.02.060,Colour_Similarity_Experiment,2020.1.2,Win32,60,5fb5945709dec70f2d595766,,,,,,,,,,,,,,,,,,,,PF,,,,,,,,7,1.440505,,,,,,,,,,,,,,,,,,,,,,,,,,,,1,47,128,1,0,0,response1disk,6,4,10,1,0,0,rectangle,105,58,1,0,0,6,6,"[116,291,261,148,47,6,36,50,154,195,303,67,191,15,63,252,268,53,232,193]",-14,9,1,0,0,0,50,49,49,144,1,response1disk_3,rectangle,,,,,,,,,,,,,,,,,,,
,,,,,,,,,,,,,,,,,,,,,,,,,,,,,,,,,,,,,,,,,,,5f40c462ff2ee620d5bc5acd,5fb5dd958d8154000b5e1d65,2020-11-18_20h52.02.060,Colour_Similarity_Experiment,2020.1.2,Win32,60,5fb5945709dec70f2d595766,,,,,,,,,,,,,,,,,,,,FF,,,,,,,,4,4.0907,,,,,,,,,,,,,,,,,,,,,,,,,,,,2,90,-123,1,0,0,response3disk,3,1,-6,1,0,0,rectangle,1,-6,1,0,0,6,6,"[116,291,261,148,47,6,36,50,154,195,303,67,191,15,63,252,268,53,232,193]",1,-6,1,0,0,0,51,50,50,104,1,,,,,,,,,,,,,,,,,,,,,
,,,,,,,,,,,,,,,,,,,,,,,,,,,,,,,,,,,,,,,,,,,5f40c462ff2ee620d5bc5acd,5fb5dd958d8154000b5e1d65,2020-11-18_20h52.02.060,Colour_Similarity_Experiment,2020.1.2,Win32,60,5fb5945709dec70f2d595766,,,,,,,,,,,,,,,,,,,,PF,,,,,,,,7,1.48951,,,,,,,,,,,,,,,,,,,,,,,,,,,,6,55,125,1,0,0,response1disk,2,-2,7,1,0,0,rectangle,-2,7,1,0,0,6,2,"[116,291,261,148,47,6,36,50,154,195,303,67,191,15,63,252,268,53,232,193]",-2,7,1,0,0,0,52,51,51,130,1,,,,,,,,,,,,,,,,,,,,,
,,,,,,,,,,,,,,,,,,,,,,,,,,,,,,,,,,,,,,,,,,,5f40c462ff2ee620d5bc5acd,5fb5dd958d8154000b5e1d65,2020-11-18_20h52.02.060,Colour_Similarity_Experiment,2020.1.2,Win32,60,5fb5945709dec70f2d595766,,,,,,,,,,,,,,,,,,,,PF,,,,,,,,5,2.67907,,,,,,,,,,,,,,,,,,,,,,,,,,,,1,107,-43,1,0,0,response3disk,2,-6,-6,1,0,0,rectangle,110,-49,1,0,0,5,5,"[116,291,261,148,47,6,36,50,154,195,303,67,191,15,63,252,268,53,232,193]",-10,4,1,0,0,0,53,52,52,24,1,response3disk_3,rectangle,,,,,,,,,,,,,,,,,,,
,,,,,,,,,,,,,,,,,,,,,,,,,,,,,,,,,,,,,,,,,,,5f40c462ff2ee620d5bc5acd,5fb5dd958d8154000b5e1d65,2020-11-18_20h52.02.060,Colour_Similarity_Experiment,2020.1.2,Win32,60,5fb5945709dec70f2d595766,,,,,,,,,,,,,,,,,,,,FF,,,,,,,,7,1.393355,,,,,,,,,,,,,,,,,,,,,,,,,,,,2,48,143,1,0,0,response1disk,5,-8,10,1,0,0,rectangle,-8,10,1,0,0,5,0,"[116,291,261,148,47,6,36,50,154,195,303,67,191,15,63,252,268,53,232,193]",-8,10,1,0,0,0,54,53,53,80,1,,,,,,,,,,,,,,,,,,,,,
,,,,,,,,,,,,,,,,,,,,,,,,,,,,,,,,,,,,,,,,,,,5f40c462ff2ee620d5bc5acd,5fb5dd958d8154000b5e1d65,2020-11-18_20h52.02.060,Colour_Similarity_Experiment,2020.1.2,Win32,60,5fb5945709dec70f2d595766,,,,,,,,,,,,,,,,,,,,FF,,,,,,,,7,1.567775,,,,,,,,,,,,,,,,,,,,,,,,,,,,7,46,140,1,0,0,response1disk,2,-3,12,1,0,0,rectangle,-3,12,1,0,0,5,1,"[116,291,261,148,47,6,36,50,154,195,303,67,191,15,63,252,268,53,232,193]",-3,12,1,0,0,0,55,54,54,138,1,,,,,,,,,,,,,,,,,,,,,
,,,,,,,,,,,,,,,,,,,,,,,,,,,,,,,,,,,,,,,,,,,5f40c462ff2ee620d5bc5acd,5fb5dd958d8154000b5e1d65,2020-11-18_20h52.02.060,Colour_Similarity_Experiment,2020.1.2,Win32,60,5fb5945709dec70f2d595766,,,,,,,,,,,,,,,,,,,,PF,,,,,,,,7,1.39634,,,,,,,,,,,,,,,,,,,,,,,,,,,,3,66,155,1,0,0,response1disk,8,-3,-10,1,0,0,rectangle,-3,-10,1,0,0,5,2,"[116,291,261,148,47,6,36,50,154,195,303,67,191,15,63,252,268,53,232,193]",-3,-10,1,0,0,0,56,55,55,3,1,,,,,,,,,,,,,,,,,,,,,
,,,,,,,,,,,,,,,,,,,,,,,,,,,,,,,,,,,,,,,,,,,5f40c462ff2ee620d5bc5acd,5fb5dd958d8154000b5e1d65,2020-11-18_20h52.02.060,Colour_Similarity_Experiment,2020.1.2,Win32,60,5fb5945709dec70f2d595766,,,,,,,,,,,,,,,,,,,,FF,,,,,,,,7,1.11696,,,,,,,,,,,,,,,,,,,,,,,,,,,,2,43,143,1,0,0,response1disk,6,-1,12,1,0,0,rectangle,-1,12,1,0,0,5,1,"[116,291,261,148,47,6,36,50,154,195,303,67,191,15,63,252,268,53,232,193]",-1,12,1,0,0,0,57,56,56,40,1,,,,,,,,,,,,,,,,,,,,,
,,,,,,,,,,,,,,,,,,,,,,,,,,,,,,,,,,,,,,,,,,,5f40c462ff2ee620d5bc5acd,5fb5dd958d8154000b5e1d65,2020-11-18_20h52.02.060,Colour_Similarity_Experiment,2020.1.2,Win32,60,5fb5945709dec70f2d595766,,,,,,,,,,,,,,,,,,,,PF,,,,,,,,3,3.635665,,,,,,,,,,,,,,,,,,,,,,,,,,,,7,-83,-152,1,0,0,response5disk,6,-10,-13,1,0,0,rectangle,-10,-13,1,0,0,5,4,"[116,291,261,148,47,6,36,50,154,195,303,67,191,15,63,252,268,53,232,193]",-10,-13,1,0,0,0,58,57,57,29,1,,,,,,,,,,,,,,,,,,,,,
,,,,,,,,,,,,,,,,,,,,,,,,,,,,,,,,,,,,,,,,,,,5f40c462ff2ee620d5bc5acd,5fb5dd958d8154000b5e1d65,2020-11-18_20h52.02.060,Colour_Similarity_Experiment,2020.1.2,Win32,60,5fb5945709dec70f2d595766,,,,,,,,,,,,,,,,,,,,PF,,,,,,,,0,1.601005,,,,,,,,,,,,,,,,,,,,,,,,,,,,7,-60,123,1,0,0,response7disk,7,7,5,1,0,0,rectangle,7,5,1,0,0,5,1,"[116,291,261,148,47,6,36,50,154,195,303,67,191,15,63,252,268,53,232,193]",7,5,1,0,0,0,59,58,58,51,1,,,,,,,,,,,,,,,,,,,,,
,,,,,,,,,,,,,,,,,,,,,,,,,,,,,,,,,,,,,,,,,,,5f40c462ff2ee620d5bc5acd,5fb5dd958d8154000b5e1d65,2020-11-18_20h52.02.060,Colour_Similarity_Experiment,2020.1.2,Win32,60,5fb5945709dec70f2d595766,,,,,,,,,,,,,,,,,,,,PF,,,,,,,,5,2.84514,,,,,,,,,,,,,,,,,,,,,,,,,,,,4,123,-45,1,0,0,response3disk,2,-2,2,1,0,0,rectangle,-2,2,1,0,0,5,1,"[116,291,261,148,47,6,36,50,154,195,303,67,191,15,63,252,268,53,232,193]",-2,2,1,0,0,0,60,59,59,108,1,,,,,,,,,,,,,,,,,,,,,
,,,,,,,,,,,,,,,,,,,,,,,,,,,,,,,,,,,,,,,,,,,5f40c462ff2ee620d5bc5acd,5fb5dd958d8154000b5e1d65,2020-11-18_20h52.02.060,Colour_Similarity_Experiment,2020.1.2,Win32,60,5fb5945709dec70f2d595766,,,,,,,,,,,,,,,,,,,,FF,,,,,,,,7,1.505775,,,,,,,,,,,,,,,,,,,,,,,,,,,,9,38,120,1,0,0,response1disk,4,-2,6,1,0,0,rectangle,-2,6,1,0,0,5,2,"[116,291,261,148,47,6,36,50,154,195,303,67,191,15,63,252,268,53,232,193]",-2,6,1,0,0,0,61,60,60,60,1,,,,,,,,,,,,,,,,,,,,,
,,,,,,,,,,,,,,,,,,,,,,,,,,,,,,,,,,,,,,,,,,,5f40c462ff2ee620d5bc5acd,5fb5dd958d8154000b5e1d65,2020-11-18_20h52.02.060,Colour_Similarity_Experiment,2020.1.2,Win32,60,5fb5945709dec70f2d595766,,,,,,,,,,,,,,,,,,,,FF,,,,,,,,7,1.912135,,,,,,,,,,,,,,,,,,,,,,,,,,,,4,60,142,1,0,0,response1disk,9,3,14,1,0,0,rectangle,3,14,1,0,0,5,1,"[116,291,261,148,47,6,36,50,154,195,303,67,191,15,63,252,268,53,232,193]",3,14,1,0,0,0,62,61,61,90,1,,,,,,,,,,,,,,,,,,,,,
,,,,,,,,,,,,,,,,,,,,,,,,,,,,,,,,,,,,,,,,,,,5f40c462ff2ee620d5bc5acd,5fb5dd958d8154000b5e1d65,2020-11-18_20h52.02.060,Colour_Similarity_Experiment,2020.1.2,Win32,60,5fb5945709dec70f2d595766,,,,,,,,,,,,,,,,,,,,FF,,,,,,,,7,1.15979,,,,,,,,,,,,,,,,,,,,,,,,,,,,9,53,138,1,0,0,response1disk,7,-4,0,1,0,0,rectangle,108,46,1,0,0,6,6,"[116,291,261,148,47,6,36,50,154,195,303,67,191,15,63,252,268,53,232,193]",10,9,1,0,0,0,63,62,62,100,1,response1disk_3,rectangle,,,,,,,,,,,,,,,,,,,
,,,,,,,,,,,,,,,,,,,,,,,,,,,,,,,,,,,,,,,,,,,5f40c462ff2ee620d5bc5acd,5fb5dd958d8154000b5e1d65,2020-11-18_20h52.02.060,Colour_Similarity_Experiment,2020.1.2,Win32,60,5fb5945709dec70f2d595766,,,,,,,,,,,,,,,,,,,,FF,,,,,,,,7,2.376715,,,,,,,,,,,,,,,,,,,,,,,,,,,,2,51,143,1,0,0,response1disk,9,-12,4,1,0,0,rectangle,-12,4,1,0,0,6,0,"[116,291,261,148,47,6,36,50,154,195,303,67,191,15,63,252,268,53,232,193]",-12,4,1,0,0,0,64,63,63,72,1,,,,,,,,,,,,,,,,,,,,,
,,,,,,,,,,,,,,,,,,,,,,,,,,,,,,,,,,,,,,,,,,,5f40c462ff2ee620d5bc5acd,5fb5dd958d8154000b5e1d65,2020-11-18_20h52.02.060,Colour_Similarity_Experiment,2020.1.2,Win32,60,5fb5945709dec70f2d595766,,,,,,,,,,,,,,,,,,,,FF,,,,,,,,7,3.904315,,,,,,,,,,,,,,,,,,,,,,,,,,,,7,57,144,1,0,0,response1disk,3,4,-4,1,0,0,rectangle,4,-4,1,0,0,6,0,"[116,291,261,148,47,6,36,50,154,195,303,67,191,15,63,252,268,53,232,193]",4,-4,1,0,0,0,65,64,64,73,1,,,,,,,,,,,,,,,,,,,,,
,,,,,,,,,,,,,,,,,,,,,,,,,,,,,,,,,,,,,,,,,,,5f40c462ff2ee620d5bc5acd,5fb5dd958d8154000b5e1d65,2020-11-18_20h52.02.060,Colour_Similarity_Experiment,2020.1.2,Win32,60,5fb5945709dec70f2d595766,,,,,,,,,,,,,,,,,,,,FF,,,,,,,,5,2.510505,,,,,,,,,,,,,,,,,,,,,,,,,,,,1,113,-67,1,0,0,response3disk,9,1,-6,1,0,0,rectangle,1,-6,1,0,0,6,6,"[116,291,261,148,47,6,36,50,154,195,303,67,191,15,63,252,268,53,232,193]",1,-6,1,0,0,0,66,65,65,123,1,,,,,,,,,,,,,,,,,,,,,
,,,,,,,,,,,,,,,,,,,,,,,,,,,,,,,,,,,,,,,,,,,5f40c462ff2ee620d5bc5acd,5fb5dd958d8154000b5e1d65,2020-11-18_20h52.02.060,Colour_Similarity_Experiment,2020.1.2,Win32,60,5fb5945709dec70f2d595766,,,,,,,,,,,,,,,,,,,,FF,,,,,,,,7,2.12379,,,,,,,,,,,,,,,,,,,,,,,,,,,,9,65,107,1,0,0,response1disk,8,-5,7,1,0,0,rectangle,-137,-64,1,0,0,6,2,"[116,291,261,148,47,6,36,50,154,195,303,67,191,15,63,252,268,53,232,193]",-3,-4,1,0,0,0,67,66,66,6,1,response5disk_3,rectangle,,,,,,,,,,,,,,,,,,,
,,,,,,,,,,,,,,,,,,,,,,,,,,,,,,,,,,,,,,,,,,,5f40c462ff2ee620d5bc5acd,5fb5dd958d8154000b5e1d65,2020-11-18_20h52.02.060,Colour_Similarity_Experiment,2020.1.2,Win32,60,5fb5945709dec70f2d595766,,,,,,,,,,,,,,,,,,,,PF,,,,,,,,7,1.571515,,,,,,,,,,,,,,,,,,,,,,,,,,,,4,37,106,1,0,0,response1disk,8,-8,-6,1,0,0,rectangle,-8,-6,1,0,0,6,6,"[116,291,261,148,47,6,36,50,154,195,303,67,191,15,63,252,268,53,232,193]",-8,-6,1,0,0,0,68,67,67,124,1,,,,,,,,,,,,,,,,,,,,,
,,,,,,,,,,,,,,,,,,,,,,,,,,,,,,,,,,,,,,,,,,,5f40c462ff2ee620d5bc5acd,5fb5dd958d8154000b5e1d65,2020-11-18_20h52.02.060,Colour_Similarity_Experiment,2020.1.2,Win32,60,5fb5945709dec70f2d595766,,,,,,,,,,,,,,,,,,,,PF,,,,,,,,7,1.304545,,,,,,,,,,,,,,,,,,,,,,,,,,,,8,56,119,1,0,0,response1disk,4,3,5,1,0,0,rectangle,3,5,1,0,0,6,6,"[116,291,261,148,47,6,36,50,154,195,303,67,191,15,63,252,268,53,232,193]",3,5,1,0,0,0,69,68,68,78,1,,,,,,,,,,,,,,,,,,,,,
,,,,,,,,,,,,,,,,,,,,,,,,,,,,,,,,,,,,,,,,,,,5f40c462ff2ee620d5bc5acd,5fb5dd958d8154000b5e1d65,2020-11-18_20h52.02.060,Colour_Similarity_Experiment,2020.1.2,Win32,60,5fb5945709dec70f2d595766,,,,,,,,,,,,,,,,,,,,PF,,,,,,,,0,1.57477,,,,,,,,,,,,,,,,,,,,,,,,,,,,6,-66,124,1,0,0,response7disk,6,-12,-13,1,0,0,rectangle,-12,-13,1,0,0,6,3,"[116,291,261,148,47,6,36,50,154,195,303,67,191,15,63,252,268,53,232,193]",-12,-13,1,0,0,0,70,69,69,0,1,,,,,,,,,,,,,,,,,,,,,
,,,,,,,,,,,,,,,,,,,,,,,,,,,,,,,,,,,,,,,,,,,5f40c462ff2ee620d5bc5acd,5fb5dd958d8154000b5e1d65,2020-11-18_20h52.02.060,Colour_Similarity_Experiment,2020.1.2,Win32,60,5fb5945709dec70f2d595766,,,,,,,,,,,,,,,,,,,,PF,,,,,,,,2,2.294285,,,,,,,,,,,,,,,,,,,,,,,,,,,,6,-117,-41,1,0,0,response5disk,7,-11,-5,1,0,0,rectangle,-11,-5,1,0,0,6,6,"[116,291,261,148,47,6,36,50,154,195,303,67,191,15,63,252,268,53,232,193]",-11,-5,1,0,0,0,71,70,70,50,1,,,,,,,,,,,,,,,,,,,,,
,,,,,,,,,,,,,,,,,,,,,,,,,,,,,,,,,,,,,,,,,,,5f40c462ff2ee620d5bc5acd,5fb5dd958d8154000b5e1d65,2020-11-18_20h52.02.060,Colour_Similarity_Experiment,2020.1.2,Win32,60,5fb5945709dec70f2d595766,,,,,,,,,,,,,,,,,,,,FF,,,,,,,,5,4.855605,,,,,,,,,,,,,,,,,,,,,,,,,,,,6,128,-48,1,0,0,response3disk,5,-8,2,1,0,0,rectangle,-8,2,1,0,0,6,3,"[116,291,261,148,47,6,36,50,154,195,303,67,191,15,63,252,268,53,232,193]",-8,2,1,0,0,0,72,71,71,126,1,,,,,,,,,,,,,,,,,,,,,
,,,,,,,,,,,,,,,,,,,,,,,,,,,,,,,,,,,,,,,,,,,5f40c462ff2ee620d5bc5acd,5fb5dd958d8154000b5e1d65,2020-11-18_20h52.02.060,Colour_Similarity_Experiment,2020.1.2,Win32,60,5fb5945709dec70f2d595766,,,,,,,,,,,,,,,,,,,,PF,,,,,,,,7,4.461725,,,,,,,,,,,,,,,,,,,,,,,,,,,,3,42,115,1,0,0,response1disk,7,-1,-4,1,0,0,rectangle,-1,-4,1,0,0,6,3,"[116,291,261,148,47,6,36,50,154,195,303,67,191,15,63,252,268,53,232,193]",-1,-4,1,0,0,0,73,72,72,41,1,,,,,,,,,,,,,,,,,,,,,
,,,,,,,,,,,,,,,,,,,,,,,,,,,,,,,,,,,,,,,,,,,5f40c462ff2ee620d5bc5acd,5fb5dd958d8154000b5e1d65,2020-11-18_20h52.02.060,Colour_Similarity_Experiment,2020.1.2,Win32,60,5fb5945709dec70f2d595766,,,,,,,,,,,,,,,,,,,,FF,,,,,,,,7,2.88637,,,,,,,,,,,,,,,,,,,,,,,,,,,,2,60,152,1,0,0,response1disk,8,-4,13,1,0,0,rectangle,-4,13,1,0,0,6,3,"[116,291,261,148,47,6,36,50,154,195,303,67,191,15,63,252,268,53,232,193]",-4,13,1,0,0,0,74,73,73,62,1,,,,,,,,,,,,,,,,,,,,,
,,,,,,,,,,,,,,,,,,,,,,,,,,,,,,,,,,,,,,,,,,,5f40c462ff2ee620d5bc5acd,5fb5dd958d8154000b5e1d65,2020-11-18_20h52.02.060,Colour_Similarity_Experiment,2020.1.2,Win32,60,5fb5945709dec70f2d595766,,,,,,,,,,,,,,,,,,,,FF,,,,,,,,7,1.603415,,,,,,,,,,,,,,,,,,,,,,,,,,,,8,48,127,1,0,0,response1disk,7,-4,6,1,0,0,rectangle,-4,6,1,0,0,6,1,"[116,291,261,148,47,6,36,50,154,195,303,67,191,15,63,252,268,53,232,193]",-4,6,1,0,0,0,75,74,74,86,1,,,,,,,,,,,,,,,,,,,,,
,,,,,,,,,,,,,,,,,,,,,,,,,,,,,,,,,,,,,,,,,,,5f40c462ff2ee620d5bc5acd,5fb5dd958d8154000b5e1d65,2020-11-18_20h52.02.060,Colour_Similarity_Experiment,2020.1.2,Win32,60,5fb5945709dec70f2d595766,,,,,,,,,,,,,,,,,,,,PF,,,,,,,,6,2.428415,,,,,,,,,,,,,,,,,,,,,,,,,,,,6,138,65,1,0,0,response1disk,8,12,-6,1,0,0,rectangle,12,-6,1,0,0,6,2,"[116,291,261,148,47,6,36,50,154,195,303,67,191,15,63,252,268,53,232,193]",12,-6,1,0,0,0,76,75,75,64,1,,,,,,,,,,,,,,,,,,,,,
,,,,,,,,,,,,,,,,,,,,,,,,,,,,,,,,,,,,,,,,,,,5f40c462ff2ee620d5bc5acd,5fb5dd958d8154000b5e1d65,2020-11-18_20h52.02.060,Colour_Similarity_Experiment,2020.1.2,Win32,60,5fb5945709dec70f2d595766,,,,,,,,,,,,,,,,,,,,PF,,,,,,,,7,1.406585,,,,,,,,,,,,,,,,,,,,,,,,,,,,5,61,136,1,0,0,response1disk,9,2,2,1,0,0,rectangle,2,2,1,0,0,6,7,"[116,291,261,148,47,6,36,50,154,195,303,67,191,15,63,252,268,53,232,193]",2,2,1,0,0,0,77,76,76,136,1,,,,,,,,,,,,,,,,,,,,,
,,,,,,,,,,,,,,,,,,,,,,,,,,,,,,,,,,,,,,,,,,,5f40c462ff2ee620d5bc5acd,5fb5dd958d8154000b5e1d65,2020-11-18_20h52.02.060,Colour_Similarity_Experiment,2020.1.2,Win32,60,5fb5945709dec70f2d595766,,,,,,,,,,,,,,,,,,,,PF,,,,,,,,7,1.109225,,,,,,,,,,,,,,,,,,,,,,,,,,,,8,50,116,1,0,0,response1disk,7,1,10,1,0,0,rectangle,1,10,1,0,0,6,5,"[116,291,261,148,47,6,36,50,154,195,303,67,191,15,63,252,268,53,232,193]",1,10,1,0,0,0,78,77,77,23,1,,,,,,,,,,,,,,,,,,,,,
,,,,,,,,,,,,,,,,,,,,,,,,,,,,,,,,,,,,,,,,,,,5f40c462ff2ee620d5bc5acd,5fb5dd958d8154000b5e1d65,2020-11-18_20h52.02.060,Colour_Similarity_Experiment,2020.1.2,Win32,60,5fb5945709dec70f2d595766,,,,,,,,,,,,,,,,,,,,PF,,,,,,,,7,1.3173,,,,,,,,,,,,,,,,,,,,,,,,,,,,8,59,148,1,0,0,response1disk,2,-2,8,1,0,0,rectangle,-2,8,1,0,0,6,1,"[116,291,261,148,47,6,36,50,154,195,303,67,191,15,63,252,268,53,232,193]",-2,8,1,0,0,0,79,78,78,83,1,,,,,,,,,,,,,,,,,,,,,
,,,,,,,,,,,,,,,,,,,,,,,,,,,,,,,,,,,,,,,,,,,5f40c462ff2ee620d5bc5acd,5fb5dd958d8154000b5e1d65,2020-11-18_20h52.02.060,Colour_Similarity_Experiment,2020.1.2,Win32,60,5fb5945709dec70f2d595766,,,,,,,,,,,,,,,,,,,,FF,,,,,,,,7,3.592215,,,,,,,,,,,,,,,,,,,,,,,,,,,,1,54,139,1,0,0,response1disk,7,1,14,1,0,0,rectangle,1,14,1,0,0,6,7,"[116,291,261,148,47,6,36,50,154,195,303,67,191,15,63,252,268,53,232,193]",1,14,1,0,0,0,80,79,79,137,1,,,,,,,,,,,,,,,,,,,,,
,,,,,,,,,,,,,,,,,,,,,,,,,,,,,,,,,,,,,,,,,,,5f40c462ff2ee620d5bc5acd,5fb5dd958d8154000b5e1d65,2020-11-18_20h52.02.060,Colour_Similarity_Experiment,2020.1.2,Win32,60,5fb5945709dec70f2d595766,,,,,,,,,,,,,,,,,,,,PF,,,,,,,,7,1.347975,,,,,,,,,,,,,,,,,,,,,,,,,,,,5,53,130,1,0,0,response1disk,2,-1,-4,1,0,0,rectangle,-1,-4,1,0,0,6,0,"[116,291,261,148,47,6,36,50,154,195,303,67,191,15,63,252,268,53,232,193]",-1,-4,1,0,0,0,81,80,80,129,1,,,,,,,,,,,,,,,,,,,,,
,,,,,,,,,,,,,,,,,,,,,,,,,,,,,,,,,,,,,,,,,,,5f40c462ff2ee620d5bc5acd,5fb5dd958d8154000b5e1d65,2020-11-18_20h52.02.060,Colour_Similarity_Experiment,2020.1.2,Win32,60,5fb5945709dec70f2d595766,,,,,,,,,,,,,,,,,,,,FF,,,,,,,,7,1.31269,,,,,,,,,,,,,,,,,,,,,,,,,,,,1,57,140,1,0,0,response1disk,3,4,8,1,0,0,rectangle,4,8,1,0,0,6,3,"[116,291,261,148,47,6,36,50,154,195,303,67,191,15,63,252,268,53,232,193]",4,8,1,0,0,0,82,81,81,99,1,,,,,,,,,,,,,,,,,,,,,
,,,,,,,,,,,,,,,,,,,,,,,,,,,,,,,,,,,,,,,,,,,5f40c462ff2ee620d5bc5acd,5fb5dd958d8154000b5e1d65,2020-11-18_20h52.02.060,Colour_Similarity_Experiment,2020.1.2,Win32,60,5fb5945709dec70f2d595766,,,,,,,,,,,,,,,,,,,,FF,,,,,,,,7,1.28189,,,,,,,,,,,,,,,,,,,,,,,,,,,,5,48,145,1,0,0,response1disk,6,-1,-1,1,0,0,rectangle,-1,-1,1,0,0,6,6,"[116,291,261,148,47,6,36,50,154,195,303,67,191,15,63,252,268,53,232,193]",-1,-1,1,0,0,0,83,82,82,12,1,,,,,,,,,,,,,,,,,,,,,
,,,,,,,,,,,,,,,,,,,,,,,,,,,,,,,,,,,,,,,,,,,5f40c462ff2ee620d5bc5acd,5fb5dd958d8154000b5e1d65,2020-11-18_20h52.02.060,Colour_Similarity_Experiment,2020.1.2,Win32,60,5fb5945709dec70f2d595766,,,,,,,,,,,,,,,,,,,,PF,,,,,,,,0,1.553775,,,,,,,,,,,,,,,,,,,,,,,,,,,,5,-66,124,1,0,0,response7disk,5,-10,10,1,0,0,rectangle,-10,10,1,0,0,6,1,"[116,291,261,148,47,6,36,50,154,195,303,67,191,15,63,252,268,53,232,193]",-10,10,1,0,0,0,84,83,83,94,1,,,,,,,,,,,,,,,,,,,,,
,,,,,,,,,,,,,,,,,,,,,,,,,,,,,,,,,,,,,,,,,,,5f40c462ff2ee620d5bc5acd,5fb5dd958d8154000b5e1d65,2020-11-18_20h52.02.060,Colour_Similarity_Experiment,2020.1.2,Win32,60,5fb5945709dec70f2d595766,,,,,,,,,,,,,,,,,,,,PF,,,,,,,,0,2.23305,,,,,,,,,,,,,,,,,,,,,,,,,,,,2,-50,141,1,0,0,response7disk,2,-1,1,1,0,0,rectangle,-1,1,1,0,0,6,4,"[116,291,261,148,47,6,36,50,154,195,303,67,191,15,63,252,268,53,232,193]",-1,1,1,0,0,0,85,84,84,14,1,,,,,,,,,,,,,,,,,,,,,
,,,,,,,,,,,,,,,,,,,,,,,,,,,,,,,,,,,,,,,,,,,5f40c462ff2ee620d5bc5acd,5fb5dd958d8154000b5e1d65,2020-11-18_20h52.02.060,Colour_Similarity_Experiment,2020.1.2,Win32,60,5fb5945709dec70f2d595766,,,,,,,,,,,,,,,,,,,,FF,,,,,,,,7,1.59044,,,,,,,,,,,,,,,,,,,,,,,,,,,,8,48,132,1,0,0,response1disk,2,-2,14,1,0,0,rectangle,-2,14,1,0,0,6,2,"[116,291,261,148,47,6,36,50,154,195,303,67,191,15,63,252,268,53,232,193]",-2,14,1,0,0,0,86,85,85,22,1,,,,,,,,,,,,,,,,,,,,,
,,,,,,,,,,,,,,,,,,,,,,,,,,,,,,,,,,,,,,,,,,,5f40c462ff2ee620d5bc5acd,5fb5dd958d8154000b5e1d65,2020-11-18_20h52.02.060,Colour_Similarity_Experiment,2020.1.2,Win32,60,5fb5945709dec70f2d595766,,,,,,,,,,,,,,,,,,,,FF,,,,,,,,7,1.49065,,,,,,,,,,,,,,,,,,,,,,,,,,,,2,61,107,1,0,0,response1disk,7,9,-1,1,0,0,rectangle,9,-1,1,0,0,6,3,"[116,291,261,148,47,6,36,50,154,195,303,67,191,15,63,252,268,53,232,193]",9,-1,1,0,0,0,87,86,86,63,1,,,,,,,,,,,,,,,,,,,,,
,,,,,,,,,,,,,,,,,,,,,,,,,,,,,,,,,,,,,,,,,,,5f40c462ff2ee620d5bc5acd,5fb5dd958d8154000b5e1d65,2020-11-18_20h52.02.060,Colour_Similarity_Experiment,2020.1.2,Win32,60,5fb5945709dec70f2d595766,,,,,,,,,,,,,,,,,,,,FF,,,,,,,,5,4.392625,,,,,,,,,,,,,,,,,,,,,,,,,,,,8,114,-51,1,0,0,response3disk,9,4,-2,1,0,0,rectangle,4,-2,1,0,0,6,0,"[116,291,261,148,47,6,36,50,154,195,303,67,191,15,63,252,268,53,232,193]",4,-2,1,0,0,0,88,87,87,105,1,,,,,,,,,,,,,,,,,,,,,
,,,,,,,,,,,,,,,,,,,,,,,,,,,,,,,,,,,,,,,,,,,5f40c462ff2ee620d5bc5acd,5fb5dd958d8154000b5e1d65,2020-11-18_20h52.02.060,Colour_Similarity_Experiment,2020.1.2,Win32,60,5fb5945709dec70f2d595766,,,,,,,,,,,,,,,,,,,,FF,,,,,,,,3,3.387105,,,,,,,,,,,,,,,,,,,,,,,,,,,,5,-69,-93,1,0,0,response5disk,3,-2,-9,1,0,0,rectangle,-2,-9,1,0,0,6,6,"[116,291,261,148,47,6,36,50,154,195,303,67,191,15,63,252,268,53,232,193]",-2,-9,1,0,0,0,89,88,88,25,1,,,,,,,,,,,,,,,,,,,,,
,,,,,,,,,,,,,,,,,,,,,,,,,,,,,,,,,,,,,,,,,,,5f40c462ff2ee620d5bc5acd,5fb5dd958d8154000b5e1d65,2020-11-18_20h52.02.060,Colour_Similarity_Experiment,2020.1.2,Win32,60,5fb5945709dec70f2d595766,,,,,,,,,,,,,,,,,,,,PF,,,,,,,,7,1.333045,,,,,,,,,,,,,,,,,,,,,,,,,,,,1,58,121,1,0,0,response1disk,3,-1,-1,1,0,0,rectangle,-1,-1,1,0,0,6,2,"[116,291,261,148,47,6,36,50,154,195,303,67,191,15,63,252,268,53,232,193]",-1,-1,1,0,0,0,90,89,89,1,1,,,,,,,,,,,,,,,,,,,,,
,,,,,,,,,,,,,,,,,,,,,,,,,,,,,,,,,,,,,,,,,,,5f40c462ff2ee620d5bc5acd,5fb5dd958d8154000b5e1d65,2020-11-18_20h52.02.060,Colour_Similarity_Experiment,2020.1.2,Win32,60,5fb5945709dec70f2d595766,,,,,,,,,,,,,,,,,,,,FF,,,,,,,,0,3.36209,,,,,,,,,,,,,,,,,,,,,,,,,,,,1,-59,141,1,0,0,response7disk,1,2,8,1,0,0,rectangle,2,8,1,0,0,6,7,"[116,291,261,148,47,6,36,50,154,195,303,67,191,15,63,252,268,53,232,193]",2,8,1,0,0,0,91,90,90,151,1,,,,,,,,,,,,,,,,,,,,,
,,,,,,,,,,,,,,,,,,,,,,,,,,,,,,,,,,,,,,,,,,,5f40c462ff2ee620d5bc5acd,5fb5dd958d8154000b5e1d65,2020-11-18_20h52.02.060,Colour_Similarity_Experiment,2020.1.2,Win32,60,5fb5945709dec70f2d595766,,,,,,,,,,,,,,,,,,,,FF,,,,,,,,4,4.03693,,,,,,,,,,,,,,,,,,,,,,,,,,,,3,50,-145,1,0,0,response3disk,2,-11,14,1,0,0,rectangle,-11,14,1,0,0,6,4,"[116,291,261,148,47,6,36,50,154,195,303,67,191,15,63,252,268,53,232,193]",-11,14,1,0,0,0,92,91,91,93,1,,,,,,,,,,,,,,,,,,,,,
,,,,,,,,,,,,,,,,,,,,,,,,,,,,,,,,,,,,,,,,,,,5f40c462ff2ee620d5bc5acd,5fb5dd958d8154000b5e1d65,2020-11-18_20h52.02.060,Colour_Similarity_Experiment,2020.1.2,Win32,60,5fb5945709dec70f2d595766,,,,,,,,,,,,,,,,,,,,FF,,,,,,,,0,1.14262,,,,,,,,,,,,,,,,,,,,,,,,,,,,9,-66,137,1,0,0,response7disk,9,-5,-1,1,0,0,rectangle,-5,-1,1,0,0,6,1,"[116,291,261,148,47,6,36,50,154,195,303,67,191,15,63,252,268,53,232,193]",-5,-1,1,0,0,0,93,92,92,17,1,,,,,,,,,,,,,,,,,,,,,
,,,,,,,,,,,,,,,,,,,,,,,,,,,,,,,,,,,,,,,,,,,5f40c462ff2ee620d5bc5acd,5fb5dd958d8154000b5e1d65,2020-11-18_20h52.02.060,Colour_Similarity_Experiment,2020.1.2,Win32,60,5fb5945709dec70f2d595766,,,,,,,,,,,,,,,,,,,,PF,,,,,,,,0,1.047175,,,,,,,,,,,,,,,,,,,,,,,,,,,,1,-47,128,1,0,0,response7disk,1,-2,-12,1,0,0,rectangle,-2,-12,1,0,0,6,5,"[116,291,261,148,47,6,36,50,154,195,303,67,191,15,63,252,268,53,232,193]",-2,-12,1,0,0,0,94,93,93,76,1,,,,,,,,,,,,,,,,,,,,,
,,,,,,,,,,,,,,,,,,,,,,,,,,,,,,,,,,,,,,,,,,,5f40c462ff2ee620d5bc5acd,5fb5dd958d8154000b5e1d65,2020-11-18_20h52.02.060,Colour_Similarity_Experiment,2020.1.2,Win32,60,5fb5945709dec70f2d595766,,,,,,,,,,,,,,,,,,,,FF,,,,,,,,0,1.18462,,,,,,,,,,,,,,,,,,,,,,,,,,,,6,-69,157,1,0,0,response7disk,6,-11,9,1,0,0,rectangle,-11,9,1,0,0,6,1,"[116,291,261,148,47,6,36,50,154,195,303,67,191,15,63,252,268,53,232,193]",-11,9,1,0,0,0,95,94,94,91,1,,,,,,,,,,,,,,,,,,,,,
,,,,,,,,,,,,,,,,,,,,,,,,,,,,,,,,,,,,,,,,,,,5f40c462ff2ee620d5bc5acd,5fb5dd958d8154000b5e1d65,2020-11-18_20h52.02.060,Colour_Similarity_Experiment,2020.1.2,Win32,60,5fb5945709dec70f2d595766,,,,,,,,,,,,,,,,,,,,PF,,,,,,,,7,2.23271,,,,,,,,,,,,,,,,,,,,,,,,,,,,9,58,141,1,0,0,response1disk,5,-1,13,1,0,0,rectangle,-1,13,1,0,0,6,1,"[116,291,261,148,47,6,36,50,154,195,303,67,191,15,63,252,268,53,232,193]",-1,13,1,0,0,0,96,95,95,134,1,,,,,,,,,,,,,,,,,,,,,
,,,,,,,,,,,,,,,,,,,,,,,,,,,,,,,,,,,,,,,,,,,5f40c462ff2ee620d5bc5acd,5fb5dd958d8154000b5e1d65,2020-11-18_20h52.02.060,Colour_Similarity_Experiment,2020.1.2,Win32,60,5fb5945709dec70f2d595766,,,,,,,,,,,,,,,,,,,,FF,,,,,,,,1,2.33182,,,,,,,,,,,,,,,,,,,,,,,,,,,,4,-123,56,1,0,0,response7disk,3,1,-1,1,0,0,rectangle,1,-1,1,0,0,6,4,"[116,291,261,148,47,6,36,50,154,195,303,67,191,15,63,252,268,53,232,193]",1,-1,1,0,0,0,97,96,96,77,1,,,,,,,,,,,,,,,,,,,,,
,,,,,,,,,,,,,,,,,,,,,,,,,,,,,,,,,,,,,,,,,,,5f40c462ff2ee620d5bc5acd,5fb5dd958d8154000b5e1d65,2020-11-18_20h52.02.060,Colour_Similarity_Experiment,2020.1.2,Win32,60,5fb5945709dec70f2d595766,,,,,,,,,,,,,,,,,,,,PF,,,,,,,,0,1.23444,,,,,,,,,,,,,,,,,,,,,,,,,,,,4,-53,139,1,0,0,response7disk,3,-9,10,1,0,0,rectangle,-9,10,1,0,0,6,2,"[116,291,261,148,47,6,36,50,154,195,303,67,191,15,63,252,268,53,232,193]",-9,10,1,0,0,0,98,97,97,89,1,,,,,,,,,,,,,,,,,,,,,
,,,,,,,,,,,,,,,,,,,,,,,,,,,,,,,,,,,,,,,,,,,5f40c462ff2ee620d5bc5acd,5fb5dd958d8154000b5e1d65,2020-11-18_20h52.02.060,Colour_Similarity_Experiment,2020.1.2,Win32,60,5fb5945709dec70f2d595766,,,,,,,,,,,,,,,,,,,,FF,,,,,,,,7,1.387475,,,,,,,,,,,,,,,,,,,,,,,,,,,,4,60,127,1,0,0,response1disk,2,2,15,1,0,0,rectangle,2,15,1,0,0,6,1,"[116,291,261,148,47,6,36,50,154,195,303,67,191,15,63,252,268,53,232,193]",2,15,1,0,0,0,99,98,98,13,1,,,,,,,,,,,,,,,,,,,,,
,,,,,,,,,,,,,,,,,,,,,,,,,,,,,,,,,,,,,,,,,,,5f40c462ff2ee620d5bc5acd,5fb5dd958d8154000b5e1d65,2020-11-18_20h52.02.060,Colour_Similarity_Experiment,2020.1.2,Win32,60,5fb5945709dec70f2d595766,,,,,,,,,,,,,,,,,,,,PF,,,,,,,,7,1.24937,,,,,,,,,,,,,,,,,,,,,,,,,,,,1,60,127,1,0,0,response1disk,4,1,10,1,0,0,rectangle,1,10,1,0,0,6,2,"[116,291,261,148,47,6,36,50,154,195,303,67,191,15,63,252,268,53,232,193]",1,10,1,0,0,0,100,99,99,139,1,,,,,,,,,,,,,,,,,,,,,
,,,,,,,,,,,,,,,,,,,,,,,,,,,,,,,,,,,,,,,,,,,5f40c462ff2ee620d5bc5acd,5fb5dd958d8154000b5e1d65,2020-11-18_20h52.02.060,Colour_Similarity_Experiment,2020.1.2,Win32,60,5fb5945709dec70f2d595766,,,,,,,,,,,,,,,,,,,,PF,,,,,,,,3,2.98173,,,,,,,,,,,,,,,,,,,,,,,,,,,,4,-55,-117,1,0,0,response5disk,5,0,-2,1,0,0,rectangle,0,-2,1,0,0,6,5,"[116,291,261,148,47,6,36,50,154,195,303,67,191,15,63,252,268,53,232,193]",0,-2,1,0,0,0,101,100,100,49,1,,,,,,,,,,,,,,,,,,,,,
,,,,,,,,,,,,,,,,,,,,,,,,,,,,,,,,,,,,,,,,,,,5f40c462ff2ee620d5bc5acd,5fb5dd958d8154000b5e1d65,2020-11-18_20h52.02.060,Colour_Similarity_Experiment,2020.1.2,Win32,60,5fb5945709dec70f2d595766,,,,,,,,,,,,,,,,,,,,PF,,,,,,,,5,2.565675,,,,,,,,,,,,,,,,,,,,,,,,,,,,8,117,-62,1,0,0,response3disk,9,15,-7,1,0,0,rectangle,15,-7,1,0,0,6,3,"[116,291,261,148,47,6,36,50,154,195,303,67,191,15,63,252,268,53,232,193]",15,-7,1,0,0,0,102,101,101,42,1,,,,,,,,,,,,,,,,,,,,,
,,,,,,,,,,,,,,,,,,,,,,,,,,,,,,,,,,,,,,,,,,,5f40c462ff2ee620d5bc5acd,5fb5dd958d8154000b5e1d65,2020-11-18_20h52.02.060,Colour_Similarity_Experiment,2020.1.2,Win32,60,5fb5945709dec70f2d595766,,,,,,,,,,,,,,,,,,,,PF,,,,,,,,7,2.51583,,,,,,,,,,,,,,,,,,,,,,,,,,,,1,58,144,1,0,0,response1disk,7,0,10,1,0,0,rectangle,0,10,1,0,0,6,2,"[116,291,261,148,47,6,36,50,154,195,303,67,191,15,63,252,268,53,232,193]",0,10,1,0,0,0,103,102,102,150,1,,,,,,,,,,,,,,,,,,,,,
,,,,,,,,,,,,,,,,,,,,,,,,,,,,,,,,,,,,,,,,,,,5f40c462ff2ee620d5bc5acd,5fb5dd958d8154000b5e1d65,2020-11-18_20h52.02.060,Colour_Similarity_Experiment,2020.1.2,Win32,60,5fb5945709dec70f2d595766,,,,,,,,,,,,,,,,,,,,PF,,,,,,,,3,9.10985,,,,,,,,,,,,,,,,,,,,,,,,,,,,3,-33,-93,1,0,0,response5disk,4,5,-1,1,0,0,rectangle,5,-1,1,0,0,6,6,"[116,291,261,148,47,6,36,50,154,195,303,67,191,15,63,252,268,53,232,193]",5,-1,1,0,0,0,104,103,103,30,1,,,,,,,,,,,,,,,,,,,,,
,,,,,,,,,,,,,,,,,,,,,,,,,,,,,,,,,,,,,,,,,,,5f40c462ff2ee620d5bc5acd,5fb5dd958d8154000b5e1d65,2020-11-18_20h52.02.060,Colour_Similarity_Experiment,2020.1.2,Win32,60,5fb5945709dec70f2d595766,,,,,,,,,,,,,,,,,,,,PF,,,,,,,,7,2.02165,,,,,,,,,,,,,,,,,,,,,,,,,,,,3,56,123,1,0,0,response1disk,6,1,14,1,0,0,rectangle,1,14,1,0,0,6,5,"[116,291,261,148,47,6,36,50,154,195,303,67,191,15,63,252,268,53,232,193]",1,14,1,0,0,0,105,104,104,47,1,,,,,,,,,,,,,,,,,,,,,
,,,,,,,,,,,,,,,,,,,,,,,,,,,,,,,,,,,,,,,,,,,5f40c462ff2ee620d5bc5acd,5fb5dd958d8154000b5e1d65,2020-11-18_20h52.02.060,Colour_Similarity_Experiment,2020.1.2,Win32,60,5fb5945709dec70f2d595766,,,,,,,,,,,,,,,,,,,,PF,,,,,,,,7,1.116265,,,,,,,,,,,,,,,,,,,,,,,,,,,,9,39,123,1,0,0,response1disk,8,-7,3,1,0,0,rectangle,-7,3,1,0,0,6,1,"[116,291,261,148,47,6,36,50,154,195,303,67,191,15,63,252,268,53,232,193]",-7,3,1,0,0,0,106,105,105,67,1,,,,,,,,,,,,,,,,,,,,,
,,,,,,,,,,,,,,,,,,,,,,,,,,,,,,,,,,,,,,,,,,,5f40c462ff2ee620d5bc5acd,5fb5dd958d8154000b5e1d65,2020-11-18_20h52.02.060,Colour_Similarity_Experiment,2020.1.2,Win32,60,5fb5945709dec70f2d595766,,,,,,,,,,,,,,,,,,,,FF,,,,,,,,3,2.333085,,,,,,,,,,,,,,,,,,,,,,,,,,,,6,-74,-96,1,0,0,response5disk,7,0,-9,1,0,0,rectangle,0,-9,1,0,0,6,2,"[116,291,261,148,47,6,36,50,154,195,303,67,191,15,63,252,268,53,232,193]",0,-9,1,0,0,0,107,106,106,18,1,,,,,,,,,,,,,,,,,,,,,
,,,,,,,,,,,,,,,,,,,,,,,,,,,,,,,,,,,,,,,,,,,5f40c462ff2ee620d5bc5acd,5fb5dd958d8154000b5e1d65,2020-11-18_20h52.02.060,Colour_Similarity_Experiment,2020.1.2,Win32,60,5fb5945709dec70f2d595766,,,,,,,,,,,,,,,,,,,,FF,,,,,,,,7,14.814395,,,,,,,,,,,,,,,,,,,,,,,,,,,,5,61,155,1,0,0,response1disk,7,11,10,1,0,0,rectangle,11,10,1,0,0,6,3,"[116,291,261,148,47,6,36,50,154,195,303,67,191,15,63,252,268,53,232,193]",11,10,1,0,0,0,108,107,107,7,1,,,,,,,,,,,,,,,,,,,,,
,,,,,,,,,,,,,,,,,,,,,,,,,,,,,,,,,,,,,,,,,,,5f40c462ff2ee620d5bc5acd,5fb5dd958d8154000b5e1d65,2020-11-18_20h52.02.060,Colour_Similarity_Experiment,2020.1.2,Win32,60,5fb5945709dec70f2d595766,,,,,,,,,,,,,,,,,,,,PF,,,,,,,,7,1.26618,,,,,,,,,,,,,,,,,,,,,,,,,,,,7,77,137,1,0,0,response1disk,5,4,-2,1,0,0,rectangle,4,-2,1,0,0,6,6,"[116,291,261,148,47,6,36,50,154,195,303,67,191,15,63,252,268,53,232,193]",4,-2,1,0,0,0,109,108,108,92,1,,,,,,,,,,,,,,,,,,,,,
,,,,,,,,,,,,,,,,,,,,,,,,,,,,,,,,,,,,,,,,,,,5f40c462ff2ee620d5bc5acd,5fb5dd958d8154000b5e1d65,2020-11-18_20h52.02.060,Colour_Similarity_Experiment,2020.1.2,Win32,60,5fb5945709dec70f2d595766,,,,,,,,,,,,,,,,,,,,PF,,,,,,,,5,2.18329,,,,,,,,,,,,,,,,,,,,,,,,,,,,8,108,-50,1,0,0,response3disk,6,7,10,1,0,0,rectangle,7,10,1,0,0,6,1,"[116,291,261,148,47,6,36,50,154,195,303,67,191,15,63,252,268,53,232,193]",7,10,1,0,0,0,110,109,109,161,1,,,,,,,,,,,,,,,,,,,,,
,,,,,,,,,,,,,,,,,,,,,,,,,,,,,,,,,,,,,,,,,,,5f40c462ff2ee620d5bc5acd,5fb5dd958d8154000b5e1d65,2020-11-18_20h52.02.060,Colour_Similarity_Experiment,2020.1.2,Win32,60,5fb5945709dec70f2d595766,,,,,,,,,,,,,,,,,,,,PF,,,,,,,,7,0.832945,,,,,,,,,,,,,,,,,,,,,,,,,,,,2,55,120,1,0,0,response1disk,9,5,-7,1,0,0,rectangle,5,-7,1,0,0,6,2,"[116,291,261,148,47,6,36,50,154,195,303,67,191,15,63,252,268,53,232,193]",5,-7,1,0,0,0,111,110,110,39,1,,,,,,,,,,,,,,,,,,,,,
,,,,,,,,,,,,,,,,,,,,,,,,,,,,,,,,,,,,,,,,,,,5f40c462ff2ee620d5bc5acd,5fb5dd958d8154000b5e1d65,2020-11-18_20h52.02.060,Colour_Similarity_Experiment,2020.1.2,Win32,60,5fb5945709dec70f2d595766,,,,,,,,,,,,,,,,,,,,PF,,,,,,,,7,0.916695,,,,,,,,,,,,,,,,,,,,,,,,,,,,9,57,112,1,0,0,response1disk,2,-1,0,1,0,0,rectangle,-1,0,1,0,0,6,6,"[116,291,261,148,47,6,36,50,154,195,303,67,191,15,63,252,268,53,232,193]",-1,0,1,0,0,0,112,111,111,157,1,,,,,,,,,,,,,,,,,,,,,
,,,,,,,,,,,,,,,,,,,,,,,,,,,,,,,,,,,,,,,,,,,5f40c462ff2ee620d5bc5acd,5fb5dd958d8154000b5e1d65,2020-11-18_20h52.02.060,Colour_Similarity_Experiment,2020.1.2,Win32,60,5fb5945709dec70f2d595766,,,,,,,,,,,,,,,,,,,,PF,,,,,,,,7,1.69945,,,,,,,,,,,,,,,,,,,,,,,,,,,,4,60,147,1,0,0,response1disk,6,0,14,1,0,0,rectangle,0,14,1,0,0,6,7,"[116,291,261,148,47,6,36,50,154,195,303,67,191,15,63,252,268,53,232,193]",0,14,1,0,0,0,113,112,112,120,1,,,,,,,,,,,,,,,,,,,,,
,,,,,,,,,,,,,,,,,,,,,,,,,,,,,,,,,,,,,,,,,,,5f40c462ff2ee620d5bc5acd,5fb5dd958d8154000b5e1d65,2020-11-18_20h52.02.060,Colour_Similarity_Experiment,2020.1.2,Win32,60,5fb5945709dec70f2d595766,,,,,,,,,,,,,,,,,,,,PF,,,,,,,,7,0.799655,,,,,,,,,,,,,,,,,,,,,,,,,,,,2,40,143,1,0,0,response1disk,4,-2,3,1,0,0,rectangle,-2,3,1,0,0,6,6,"[116,291,261,148,47,6,36,50,154,195,303,67,191,15,63,252,268,53,232,193]",-2,3,1,0,0,0,114,113,113,127,1,,,,,,,,,,,,,,,,,,,,,
,,,,,,,,,,,,,,,,,,,,,,,,,,,,,,,,,,,,,,,,,,,5f40c462ff2ee620d5bc5acd,5fb5dd958d8154000b5e1d65,2020-11-18_20h52.02.060,Colour_Similarity_Experiment,2020.1.2,Win32,60,5fb5945709dec70f2d595766,,,,,,,,,,,,,,,,,,,,FF,,,,,,,,7,1.15016,,,,,,,,,,,,,,,,,,,,,,,,,,,,7,51,120,1,0,0,response1disk,1,-8,4,1,0,0,rectangle,-8,4,1,0,0,6,5,"[116,291,261,148,47,6,36,50,154,195,303,67,191,15,63,252,268,53,232,193]",-8,4,1,0,0,0,115,114,114,132,1,,,,,,,,,,,,,,,,,,,,,
,,,,,,,,,,,,,,,,,,,,,,,,,,,,,,,,,,,,,,,,,,,5f40c462ff2ee620d5bc5acd,5fb5dd958d8154000b5e1d65,2020-11-18_20h52.02.060,Colour_Similarity_Experiment,2020.1.2,Win32,60,5fb5945709dec70f2d595766,,,,,,,,,,,,,,,,,,,,PF,,,,,,,,7,0.8506,,,,,,,,,,,,,,,,,,,,,,,,,,,,1,49,117,1,0,0,response1disk,8,7,1,1,0,0,rectangle,-100,-42,1,0,0,6,2,"[116,291,261,148,47,6,36,50,154,195,303,67,191,15,63,252,268,53,232,193]",-1,-2,1,0,0,0,116,115,115,65,1,response5disk_3,rectangle,,,,,,,,,,,,,,,,,,,
,,,,,,,,,,,,,,,,,,,,,,,,,,,,,,,,,,,,,,,,,,,5f40c462ff2ee620d5bc5acd,5fb5dd958d8154000b5e1d65,2020-11-18_20h52.02.060,Colour_Similarity_Experiment,2020.1.2,Win32,60,5fb5945709dec70f2d595766,,,,,,,,,,,,,,,,,,,,PF,,,,,,,,6,3.2659,,,,,,,,,,,,,,,,,,,,,,,,,,,,8,106,71,1,0,0,response1disk,5,-3,-15,1,0,0,rectangle,-3,-15,1,0,0,6,0,"[116,291,261,148,47,6,36,50,154,195,303,67,191,15,63,252,268,53,232,193]",-3,-15,1,0,0,0,117,116,116,98,1,,,,,,,,,,,,,,,,,,,,,
,,,,,,,,,,,,,,,,,,,,,,,,,,,,,,,,,,,,,,,,,,,5f40c462ff2ee620d5bc5acd,5fb5dd958d8154000b5e1d65,2020-11-18_20h52.02.060,Colour_Similarity_Experiment,2020.1.2,Win32,60,5fb5945709dec70f2d595766,,,,,,,,,,,,,,,,,,,,FF,,,,,,,,7,2.633655,,,,,,,,,,,,,,,,,,,,,,,,,,,,6,53,124,1,0,0,response1disk,8,2,15,1,0,0,rectangle,2,15,1,0,0,6,2,"[116,291,261,148,47,6,36,50,154,195,303,67,191,15,63,252,268,53,232,193]",2,15,1,0,0,0,118,117,117,133,1,,,,,,,,,,,,,,,,,,,,,
,,,,,,,,,,,,,,,,,,,,,,,,,,,,,,,,,,,,,,,,,,,5f40c462ff2ee620d5bc5acd,5fb5dd958d8154000b5e1d65,2020-11-18_20h52.02.060,Colour_Similarity_Experiment,2020.1.2,Win32,60,5fb5945709dec70f2d595766,,,,,,,,,,,,,,,,,,,,PF,,,,,,,,7,1.134515,,,,,,,,,,,,,,,,,,,,,,,,,,,,4,45,149,1,0,0,response1disk,9,5,14,1,0,0,rectangle,5,14,1,0,0,6,7,"[116,291,261,148,47,6,36,50,154,195,303,67,191,15,63,252,268,53,232,193]",5,14,1,0,0,0,119,118,118,75,1,,,,,,,,,,,,,,,,,,,,,
,,,,,,,,,,,,,,,,,,,,,,,,,,,,,,,,,,,,,,,,,,,5f40c462ff2ee620d5bc5acd,5fb5dd958d8154000b5e1d65,2020-11-18_20h52.02.060,Colour_Similarity_Experiment,2020.1.2,Win32,60,5fb5945709dec70f2d595766,,,,,,,,,,,,,,,,,,,,PF,,,,,,,,7,1.117175,,,,,,,,,,,,,,,,,,,,,,,,,,,,2,54,144,1,0,0,response1disk,1,7,18,1,0,0,rectangle,7,18,1,0,0,6,4,"[116,291,261,148,47,6,36,50,154,195,303,67,191,15,63,252,268,53,232,193]",7,18,1,0,0,0,120,119,119,9,1,,,,,,,,,,,,,,,,,,,,,
,,,,,,,,,,,,,,,,,,,,,,,,,,,,,,,,,,,,,,,,,,,5f40c462ff2ee620d5bc5acd,5fb5dd958d8154000b5e1d65,2020-11-18_20h52.02.060,Colour_Similarity_Experiment,2020.1.2,Win32,60,5fb5945709dec70f2d595766,,,,,,,,,,,,,,,,,,,,PF,,,,,,,,0,1.0994,,,,,,,,,,,,,,,,,,,,,,,,,,,,8,-49,142,1,0,0,response7disk,8,-2,3,1,0,0,rectangle,-2,3,1,0,0,6,7,"[116,291,261,148,47,6,36,50,154,195,303,67,191,15,63,252,268,53,232,193]",-2,3,1,0,0,0,121,120,120,153,1,,,,,,,,,,,,,,,,,,,,,
,,,,,,,,,,,,,,,,,,,,,,,,,,,,,,,,,,,,,,,,,,,5f40c462ff2ee620d5bc5acd,5fb5dd958d8154000b5e1d65,2020-11-18_20h52.02.060,Colour_Similarity_Experiment,2020.1.2,Win32,60,5fb5945709dec70f2d595766,,,,,,,,,,,,,,,,,,,,PF,,,,,,,,7,10.448165,,,,,,,,,,,,,,,,,,,,,,,,,,,,7,34,140,1,0,0,response1disk,2,-2,13,1,0,0,rectangle,-2,13,1,0,0,6,0,"[116,291,261,148,47,6,36,50,154,195,303,67,191,15,63,252,268,53,232,193]",-2,13,1,0,0,0,122,121,121,32,1,,,,,,,,,,,,,,,,,,,,,
,,,,,,,,,,,,,,,,,,,,,,,,,,,,,,,,,,,,,,,,,,,5f40c462ff2ee620d5bc5acd,5fb5dd958d8154000b5e1d65,2020-11-18_20h52.02.060,Colour_Similarity_Experiment,2020.1.2,Win32,60,5fb5945709dec70f2d595766,,,,,,,,,,,,,,,,,,,,FF,,,,,,,,7,0.8999,,,,,,,,,,,,,,,,,,,,,,,,,,,,3,50,127,1,0,0,response1disk,7,1,-5,1,0,0,rectangle,1,-5,1,0,0,6,5,"[116,291,261,148,47,6,36,50,154,195,303,67,191,15,63,252,268,53,232,193]",1,-5,1,0,0,0,123,122,122,118,1,,,,,,,,,,,,,,,,,,,,,
,,,,,,,,,,,,,,,,,,,,,,,,,,,,,,,,,,,,,,,,,,,5f40c462ff2ee620d5bc5acd,5fb5dd958d8154000b5e1d65,2020-11-18_20h52.02.060,Colour_Similarity_Experiment,2020.1.2,Win32,60,5fb5945709dec70f2d595766,,,,,,,,,,,,,,,,,,,,FF,,,,,,,,7,2.249605,,,,,,,,,,,,,,,,,,,,,,,,,,,,9,49,117,1,0,0,response1disk,2,2,4,1,0,0,rectangle,2,4,1,0,0,6,0,"[116,291,261,148,47,6,36,50,154,195,303,67,191,15,63,252,268,53,232,193]",2,4,1,0,0,0,124,123,123,11,1,,,,,,,,,,,,,,,,,,,,,
,,,,,,,,,,,,,,,,,,,,,,,,,,,,,,,,,,,,,,,,,,,5f40c462ff2ee620d5bc5acd,5fb5dd958d8154000b5e1d65,2020-11-18_20h52.02.060,Colour_Similarity_Experiment,2020.1.2,Win32,60,5fb5945709dec70f2d595766,,,,,,,,,,,,,,,,,,,,PF,,,,,,,,7,0.982915,,,,,,,,,,,,,,,,,,,,,,,,,,,,6,45,121,1,0,0,response1disk,4,9,6,1,0,0,rectangle,9,6,1,0,0,6,3,"[116,291,261,148,47,6,36,50,154,195,303,67,191,15,63,252,268,53,232,193]",9,6,1,0,0,0,125,124,124,33,1,,,,,,,,,,,,,,,,,,,,,
,,,,,,,,,,,,,,,,,,,,,,,,,,,,,,,,,,,,,,,,,,,5f40c462ff2ee620d5bc5acd,5fb5dd958d8154000b5e1d65,2020-11-18_20h52.02.060,Colour_Similarity_Experiment,2020.1.2,Win32,60,5fb5945709dec70f2d595766,,,,,,,,,,,,,,,,,,,,PF,,,,,,,,0,1.016325,,,,,,,,,,,,,,,,,,,,,,,,,,,,3,-76,154,1,0,0,response7disk,3,-14,8,1,0,0,rectangle,-14,8,1,0,0,6,6,"[116,291,261,148,47,6,36,50,154,195,303,67,191,15,63,252,268,53,232,193]",-14,8,1,0,0,0,126,125,125,4,1,,,,,,,,,,,,,,,,,,,,,
,,,,,,,,,,,,,,,,,,,,,,,,,,,,,,,,,,,,,,,,,,,5f40c462ff2ee620d5bc5acd,5fb5dd958d8154000b5e1d65,2020-11-18_20h52.02.060,Colour_Similarity_Experiment,2020.1.2,Win32,60,5fb5945709dec70f2d595766,,,,,,,,,,,,,,,,,,,,PF,,,,,,,,7,1.00008,,,,,,,,,,,,,,,,,,,,,,,,,,,,2,60,117,1,0,0,response1disk,8,4,8,1,0,0,rectangle,4,8,1,0,0,6,4,"[116,291,261,148,47,6,36,50,154,195,303,67,191,15,63,252,268,53,232,193]",4,8,1,0,0,0,127,126,126,52,1,,,,,,,,,,,,,,,,,,,,,
,,,,,,,,,,,,,,,,,,,,,,,,,,,,,,,,,,,,,,,,,,,5f40c462ff2ee620d5bc5acd,5fb5dd958d8154000b5e1d65,2020-11-18_20h52.02.060,Colour_Similarity_Experiment,2020.1.2,Win32,60,5fb5945709dec70f2d595766,,,,,,,,,,,,,,,,,,,,FF,,,,,,,,0,1.23318,,,,,,,,,,,,,,,,,,,,,,,,,,,,3,-60,127,1,0,0,response7disk,3,-13,17,1,0,0,rectangle,-13,17,1,0,0,6,1,"[116,291,261,148,47,6,36,50,154,195,303,67,191,15,63,252,268,53,232,193]",-13,17,1,0,0,0,128,127,127,68,1,,,,,,,,,,,,,,,,,,,,,
,,,,,,,,,,,,,,,,,,,,,,,,,,,,,,,,,,,,,,,,,,,5f40c462ff2ee620d5bc5acd,5fb5dd958d8154000b5e1d65,2020-11-18_20h52.02.060,Colour_Similarity_Experiment,2020.1.2,Win32,60,5fb5945709dec70f2d595766,,,,,,,,,,,,,,,,,,,,PF,,,,,,,,7,0.78403,,,,,,,,,,,,,,,,,,,,,,,,,,,,2,49,138,1,0,0,response1disk,5,-8,11,1,0,0,rectangle,-8,11,1,0,0,6,3,"[116,291,261,148,47,6,36,50,154,195,303,67,191,15,63,252,268,53,232,193]",-8,11,1,0,0,0,129,128,128,147,1,,,,,,,,,,,,,,,,,,,,,
,,,,,,,,,,,,,,,,,,,,,,,,,,,,,,,,,,,,,,,,,,,5f40c462ff2ee620d5bc5acd,5fb5dd958d8154000b5e1d65,2020-11-18_20h52.02.060,Colour_Similarity_Experiment,2020.1.2,Win32,60,5fb5945709dec70f2d595766,,,,,,,,,,,,,,,,,,,,FF,,,,,,,,7,1.533225,,,,,,,,,,,,,,,,,,,,,,,,,,,,6,41,132,1,0,0,response1disk,2,-5,16,1,0,0,rectangle,-5,16,1,0,0,6,0,"[116,291,261,148,47,6,36,50,154,195,303,67,191,15,63,252,268,53,232,193]",-5,16,1,0,0,0,130,129,129,112,1,,,,,,,,,,,,,,,,,,,,,
,,,,,,,,,,,,,,,,,,,,,,,,,,,,,,,,,,,,,,,,,,,5f40c462ff2ee620d5bc5acd,5fb5dd958d8154000b5e1d65,2020-11-18_20h52.02.060,Colour_Similarity_Experiment,2020.1.2,Win32,60,5fb5945709dec70f2d595766,,,,,,,,,,,,,,,,,,,,FF,,,,,,,,3,3.033105,,,,,,,,,,,,,,,,,,,,,,,,,,,,7,-102,-114,1,0,0,response5disk,6,-11,13,1,0,0,rectangle,-11,13,1,0,0,6,5,"[116,291,261,148,47,6,36,50,154,195,303,67,191,15,63,252,268,53,232,193]",-11,13,1,0,0,0,131,130,130,31,1,,,,,,,,,,,,,,,,,,,,,
,,,,,,,,,,,,,,,,,,,,,,,,,,,,,,,,,,,,,,,,,,,5f40c462ff2ee620d5bc5acd,5fb5dd958d8154000b5e1d65,2020-11-18_20h52.02.060,Colour_Similarity_Experiment,2020.1.2,Win32,60,5fb5945709dec70f2d595766,,,,,,,,,,,,,,,,,,,,PF,,,,,,,,7,1.034205,,,,,,,,,,,,,,,,,,,,,,,,,,,,6,56,135,1,0,0,response1disk,1,2,13,1,0,0,rectangle,2,13,1,0,0,6,0,"[116,291,261,148,47,6,36,50,154,195,303,67,191,15,63,252,268,53,232,193]",2,13,1,0,0,0,132,131,131,46,1,,,,,,,,,,,,,,,,,,,,,
,,,,,,,,,,,,,,,,,,,,,,,,,,,,,,,,,,,,,,,,,,,5f40c462ff2ee620d5bc5acd,5fb5dd958d8154000b5e1d65,2020-11-18_20h52.02.060,Colour_Similarity_Experiment,2020.1.2,Win32,60,5fb5945709dec70f2d595766,,,,,,,,,,,,,,,,,,,,PF,,,,,,,,5,3.63025,,,,,,,,,,,,,,,,,,,,,,,,,,,,6,113,-72,1,0,0,response3disk,5,15,-11,1,0,0,rectangle,15,-11,1,0,0,6,1,"[116,291,261,148,47,6,36,50,154,195,303,67,191,15,63,252,268,53,232,193]",15,-11,1,0,0,0,133,132,132,59,1,,,,,,,,,,,,,,,,,,,,,
,,,,,,,,,,,,,,,,,,,,,,,,,,,,,,,,,,,,,,,,,,,5f40c462ff2ee620d5bc5acd,5fb5dd958d8154000b5e1d65,2020-11-18_20h52.02.060,Colour_Similarity_Experiment,2020.1.2,Win32,60,5fb5945709dec70f2d595766,,,,,,,,,,,,,,,,,,,,PF,,,,,,,,5,1.81691,,,,,,,,,,,,,,,,,,,,,,,,,,,,2,134,-83,1,0,0,response3disk,3,3,-5,1,0,0,rectangle,3,-5,1,0,0,6,4,"[116,291,261,148,47,6,36,50,154,195,303,67,191,15,63,252,268,53,232,193]",3,-5,1,0,0,0,134,133,133,69,1,,,,,,,,,,,,,,,,,,,,,
,,,,,,,,,,,,,,,,,,,,,,,,,,,,,,,,,,,,,,,,,,,5f40c462ff2ee620d5bc5acd,5fb5dd958d8154000b5e1d65,2020-11-18_20h52.02.060,Colour_Similarity_Experiment,2020.1.2,Win32,60,5fb5945709dec70f2d595766,,,,,,,,,,,,,,,,,,,,FF,,,,,,,,7,2.117555,,,,,,,,,,,,,,,,,,,,,,,,,,,,5,62,135,1,0,0,response1disk,2,-24,7,1,0,0,rectangle,-24,7,1,0,0,6,4,"[116,291,261,148,47,6,36,50,154,195,303,67,191,15,63,252,268,53,232,193]",-24,7,1,0,0,0,135,134,134,55,1,,,,,,,,,,,,,,,,,,,,,
,,,,,,,,,,,,,,,,,,,,,,,,,,,,,,,,,,,,,,,,,,,5f40c462ff2ee620d5bc5acd,5fb5dd958d8154000b5e1d65,2020-11-18_20h52.02.060,Colour_Similarity_Experiment,2020.1.2,Win32,60,5fb5945709dec70f2d595766,,,,,,,,,,,,,,,,,,,,FF,,,,,,,,7,1.633525,,,,,,,,,,,,,,,,,,,,,,,,,,,,3,40,151,1,0,0,response1disk,8,6,11,1,0,0,rectangle,6,11,1,0,0,6,6,"[116,291,261,148,47,6,36,50,154,195,303,67,191,15,63,252,268,53,232,193]",6,11,1,0,0,0,136,135,135,44,1,,,,,,,,,,,,,,,,,,,,,
,,,,,,,,,,,,,,,,,,,,,,,,,,,,,,,,,,,,,,,,,,,5f40c462ff2ee620d5bc5acd,5fb5dd958d8154000b5e1d65,2020-11-18_20h52.02.060,Colour_Similarity_Experiment,2020.1.2,Win32,60,5fb5945709dec70f2d595766,,,,,,,,,,,,,,,,,,,,FF,,,,,,,,3,3.299145,,,,,,,,,,,,,,,,,,,,,,,,,,,,5,-70,-142,1,0,0,response5disk,4,-7,-4,1,0,0,rectangle,-7,-4,1,0,0,6,3,"[116,291,261,148,47,6,36,50,154,195,303,67,191,15,63,252,268,53,232,193]",-7,-4,1,0,0,0,137,136,136,8,1,,,,,,,,,,,,,,,,,,,,,
,,,,,,,,,,,,,,,,,,,,,,,,,,,,,,,,,,,,,,,,,,,5f40c462ff2ee620d5bc5acd,5fb5dd958d8154000b5e1d65,2020-11-18_20h52.02.060,Colour_Similarity_Experiment,2020.1.2,Win32,60,5fb5945709dec70f2d595766,,,,,,,,,,,,,,,,,,,,FF,,,,,,,,7,0.964715,,,,,,,,,,,,,,,,,,,,,,,,,,,,5,60,122,1,0,0,response1disk,9,5,12,1,0,0,rectangle,5,12,1,0,0,6,4,"[116,291,261,148,47,6,36,50,154,195,303,67,191,15,63,252,268,53,232,193]",5,12,1,0,0,0,138,137,137,61,1,,,,,,,,,,,,,,,,,,,,,
,,,,,,,,,,,,,,,,,,,,,,,,,,,,,,,,,,,,,,,,,,,5f40c462ff2ee620d5bc5acd,5fb5dd958d8154000b5e1d65,2020-11-18_20h52.02.060,Colour_Similarity_Experiment,2020.1.2,Win32,60,5fb5945709dec70f2d595766,,,,,,,,,,,,,,,,,,,,FF,,,,,,,,7,3.71633,,,,,,,,,,,,,,,,,,,,,,,,,,,,8,30,131,1,0,0,response1disk,3,11,4,1,0,0,rectangle,11,4,1,0,0,6,1,"[116,291,261,148,47,6,36,50,154,195,303,67,191,15,63,252,268,53,232,193]",11,4,1,0,0,0,139,138,138,154,1,,,,,,,,,,,,,,,,,,,,,
,,,,,,,,,,,,,,,,,,,,,,,,,,,,,,,,,,,,,,,,,,,5f40c462ff2ee620d5bc5acd,5fb5dd958d8154000b5e1d65,2020-11-18_20h52.02.060,Colour_Similarity_Experiment,2020.1.2,Win32,60,5fb5945709dec70f2d595766,,,,,,,,,,,,,,,,,,,,FF,,,,,,,,7,0.96701,,,,,,,,,,,,,,,,,,,,,,,,,,,,5,42,140,1,0,0,response1disk,8,3,12,1,0,0,rectangle,3,12,1,0,0,6,2,"[116,291,261,148,47,6,36,50,154,195,303,67,191,15,63,252,268,53,232,193]",3,12,1,0,0,0,140,139,139,16,1,,,,,,,,,,,,,,,,,,,,,
,,,,,,,,,,,,,,,,,,,,,,,,,,,,,,,,,,,,,,,,,,,5f40c462ff2ee620d5bc5acd,5fb5dd958d8154000b5e1d65,2020-11-18_20h52.02.060,Colour_Similarity_Experiment,2020.1.2,Win32,60,5fb5945709dec70f2d595766,,,,,,,,,,,,,,,,,,,,FF,,,,,,,,3,3.335345,,,,,,,,,,,,,,,,,,,,,,,,,,,,4,-40,-130,1,0,0,response5disk,5,9,14,1,0,0,rectangle,9,14,1,0,0,6,2,"[116,291,261,148,47,6,36,50,154,195,303,67,191,15,63,252,268,53,232,193]",9,14,1,0,0,0,141,140,140,116,1,,,,,,,,,,,,,,,,,,,,,
,,,,,,,,,,,,,,,,,,,,,,,,,,,,,,,,,,,,,,,,,,,5f40c462ff2ee620d5bc5acd,5fb5dd958d8154000b5e1d65,2020-11-18_20h52.02.060,Colour_Similarity_Experiment,2020.1.2,Win32,60,5fb5945709dec70f2d595766,,,,,,,,,,,,,,,,,,,,PF,,,,,,,,3,1.48363,,,,,,,,,,,,,,,,,,,,,,,,,,,,1,-31,-124,1,0,0,response5disk,9,11,-6,1,0,0,rectangle,11,-6,1,0,0,6,7,"[116,291,261,148,47,6,36,50,154,195,303,67,191,15,63,252,268,53,232,193]",11,-6,1,0,0,0,142,141,141,15,1,,,,,,,,,,,,,,,,,,,,,
,,,,,,,,,,,,,,,,,,,,,,,,,,,,,,,,,,,,,,,,,,,5f40c462ff2ee620d5bc5acd,5fb5dd958d8154000b5e1d65,2020-11-18_20h52.02.060,Colour_Similarity_Experiment,2020.1.2,Win32,60,5fb5945709dec70f2d595766,,,,,,,,,,,,,,,,,,,,FF,,,,,,,,5,3.06555,,,,,,,,,,,,,,,,,,,,,,,,,,,,4,85,-35,1,0,0,response3disk,6,4,-7,1,0,0,rectangle,4,-7,1,0,0,6,0,"[116,291,261,148,47,6,36,50,154,195,303,67,191,15,63,252,268,53,232,193]",4,-7,1,0,0,0,143,142,142,122,1,,,,,,,,,,,,,,,,,,,,,
,,,,,,,,,,,,,,,,,,,,,,,,,,,,,,,,,,,,,,,,,,,5f40c462ff2ee620d5bc5acd,5fb5dd958d8154000b5e1d65,2020-11-18_20h52.02.060,Colour_Similarity_Experiment,2020.1.2,Win32,60,5fb5945709dec70f2d595766,,,,,,,,,,,,,,,,,,,,PF,,,,,,,,7,1.15296,,,,,,,,,,,,,,,,,,,,,,,,,,,,9,56,109,1,0,0,response1disk,6,4,5,1,0,0,rectangle,4,5,1,0,0,6,5,"[116,291,261,148,47,6,36,50,154,195,303,67,191,15,63,252,268,53,232,193]",4,5,1,0,0,0,144,143,143,148,1,,,,,,,,,,,,,,,,,,,,,
,,,,,,,,,,,,,,,,,,,,,,,,,,,,,,,,,,,,,,,,,,,5f40c462ff2ee620d5bc5acd,5fb5dd958d8154000b5e1d65,2020-11-18_20h52.02.060,Colour_Similarity_Experiment,2020.1.2,Win32,60,5fb5945709dec70f2d595766,,,,,,,,,,,,,,,,,,,,PF,,,,,,,,7,0.965645,,,,,,,,,,,,,,,,,,,,,,,,,,,,4,74,144,1,0,0,response1disk,1,-2,6,1,0,0,rectangle,-2,6,1,0,0,6,1,"[116,291,261,148,47,6,36,50,154,195,303,67,191,15,63,252,268,53,232,193]",-2,6,1,0,0,0,145,144,144,115,1,,,,,,,,,,,,,,,,,,,,,
,,,,,,,,,,,,,,,,,,,,,,,,,,,,,,,,,,,,,,,,,,,5f40c462ff2ee620d5bc5acd,5fb5dd958d8154000b5e1d65,2020-11-18_20h52.02.060,Colour_Similarity_Experiment,2020.1.2,Win32,60,5fb5945709dec70f2d595766,,,,,,,,,,,,,,,,,,,,PF,,,,,,,,7,1.11556,,,,,,,,,,,,,,,,,,,,,,,,,,,,5,51,119,1,0,0,response1disk,7,3,3,1,0,0,rectangle,3,3,1,0,0,6,3,"[116,291,261,148,47,6,36,50,154,195,303,67,191,15,63,252,268,53,232,193]",3,3,1,0,0,0,146,145,145,146,1,,,,,,,,,,,,,,,,,,,,,
,,,,,,,,,,,,,,,,,,,,,,,,,,,,,,,,,,,,,,,,,,,5f40c462ff2ee620d5bc5acd,5fb5dd958d8154000b5e1d65,2020-11-18_20h52.02.060,Colour_Similarity_Experiment,2020.1.2,Win32,60,5fb5945709dec70f2d595766,,,,,,,,,,,,,,,,,,,,FF,,,,,,,,7,0.783555,,,,,,,,,,,,,,,,,,,,,,,,,,,,8,57,105,1,0,0,response1disk,1,3,-13,1,0,0,rectangle,3,-13,1,0,0,6,0,"[116,291,261,148,47,6,36,50,154,195,303,67,191,15,63,252,268,53,232,193]",3,-13,1,0,0,0,147,146,146,20,1,,,,,,,,,,,,,,,,,,,,,
,,,,,,,,,,,,,,,,,,,,,,,,,,,,,,,,,,,,,,,,,,,5f40c462ff2ee620d5bc5acd,5fb5dd958d8154000b5e1d65,2020-11-18_20h52.02.060,Colour_Similarity_Experiment,2020.1.2,Win32,60,5fb5945709dec70f2d595766,,,,,,,,,,,,,,,,,,,,PF,,,,,,,,7,0.86608,,,,,,,,,,,,,,,,,,,,,,,,,,,,5,42,120,1,0,0,response1disk,8,-4,-2,1,0,0,rectangle,38,-128,1,0,0,4,4,"[116,291,261,148,47,6,36,50,154,195,303,67,191,15,63,252,268,53,232,193]",-11,5,1,0,0,0,148,147,147,149,1,response3disk_3,rectangle,,,,,,,,,,,,,,,,,,,
,,,,,,,,,,,,,,,,,,,,,,,,,,,,,,,,,,,,,,,,,,,5f40c462ff2ee620d5bc5acd,5fb5dd958d8154000b5e1d65,2020-11-18_20h52.02.060,Colour_Similarity_Experiment,2020.1.2,Win32,60,5fb5945709dec70f2d595766,,,,,,,,,,,,,,,,,,,,FF,,,,,,,,7,2.23818,,,,,,,,,,,,,,,,,,,,,,,,,,,,3,55,99,1,0,0,response1disk,9,-6,1,1,0,0,rectangle,-6,1,1,0,0,4,3,"[116,291,261,148,47,6,36,50,154,195,303,67,191,15,63,252,268,53,232,193]",-6,1,1,0,0,0,149,148,148,143,1,,,,,,,,,,,,,,,,,,,,,
,,,,,,,,,,,,,,,,,,,,,,,,,,,,,,,,,,,,,,,,,,,5f40c462ff2ee620d5bc5acd,5fb5dd958d8154000b5e1d65,2020-11-18_20h52.02.060,Colour_Similarity_Experiment,2020.1.2,Win32,60,5fb5945709dec70f2d595766,,,,,,,,,,,,,,,,,,,,PF,,,,,,,,7,0.91621,,,,,,,,,,,,,,,,,,,,,,,,,,,,4,51,104,1,0,0,response1disk,7,1,5,1,0,0,rectangle,1,5,1,0,0,4,1,"[116,291,261,148,47,6,36,50,154,195,303,67,191,15,63,252,268,53,232,193]",1,5,1,0,0,0,150,149,149,38,1,,,,,,,,,,,,,,,,,,,,,
,,,,,,,,,,,,,,,,,,,,,,,,,,,,,,,,,,,,,,,,,,,5f40c462ff2ee620d5bc5acd,5fb5dd958d8154000b5e1d65,2020-11-18_20h52.02.060,Colour_Similarity_Experiment,2020.1.2,Win32,60,5fb5945709dec70f2d595766,,,,,,,,,,,,,,,,,,,,FF,,,,,,,,7,1.28112,,,,,,,,,,,,,,,,,,,,,,,,,,,,7,43,101,1,0,0,response1disk,9,3,17,1,0,0,rectangle,3,17,1,0,0,4,7,"[116,291,261,148,47,6,36,50,154,195,303,67,191,15,63,252,268,53,232,193]",3,17,1,0,0,0,151,150,150,155,1,,,,,,,,,,,,,,,,,,,,,
,,,,,,,,,,,,,,,,,,,,,,,,,,,,,,,,,,,,,,,,,,,5f40c462ff2ee620d5bc5acd,5fb5dd958d8154000b5e1d65,2020-11-18_20h52.02.060,Colour_Similarity_Experiment,2020.1.2,Win32,60,5fb5945709dec70f2d595766,,,,,,,,,,,,,,,,,,,,PF,,,,,,,,5,1.43295,,,,,,,,,,,,,,,,,,,,,,,,,,,,3,78,-58,1,0,0,response3disk,5,14,-7,1,0,0,rectangle,14,-7,1,0,0,4,7,"[116,291,261,148,47,6,36,50,154,195,303,67,191,15,63,252,268,53,232,193]",14,-7,1,0,0,0,152,151,151,66,1,,,,,,,,,,,,,,,,,,,,,
,,,,,,,,,,,,,,,,,,,,,,,,,,,,,,,,,,,,,,,,,,,5f40c462ff2ee620d5bc5acd,5fb5dd958d8154000b5e1d65,2020-11-18_20h52.02.060,Colour_Similarity_Experiment,2020.1.2,Win32,60,5fb5945709dec70f2d595766,,,,,,,,,,,,,,,,,,,,PF,,,,,,,,7,1.78544,,,,,,,,,,,,,,,,,,,,,,,,,,,,7,58,127,1,0,0,response1disk,4,3,12,1,0,0,rectangle,3,12,1,0,0,4,3,"[116,291,261,148,47,6,36,50,154,195,303,67,191,15,63,252,268,53,232,193]",3,12,1,0,0,0,153,152,152,43,1,,,,,,,,,,,,,,,,,,,,,
,,,,,,,,,,,,,,,,,,,,,,,,,,,,,,,,,,,,,,,,,,,5f40c462ff2ee620d5bc5acd,5fb5dd958d8154000b5e1d65,2020-11-18_20h52.02.060,Colour_Similarity_Experiment,2020.1.2,Win32,60,5fb5945709dec70f2d595766,,,,,,,,,,,,,,,,,,,,PF,,,,,,,,7,0.74909,,,,,,,,,,,,,,,,,,,,,,,,,,,,2,67,132,1,0,0,response1disk,7,3,-4,1,0,0,rectangle,-50,-84,1,0,0,3,3,"[116,291,261,148,47,6,36,50,154,195,303,67,191,15,63,252,268,53,232,193]",7,-2,1,0,0,0,154,153,153,107,1,response5disk_3,rectangle,,,,,,,,,,,,,,,,,,,
,,,,,,,,,,,,,,,,,,,,,,,,,,,,,,,,,,,,,,,,,,,5f40c462ff2ee620d5bc5acd,5fb5dd958d8154000b5e1d65,2020-11-18_20h52.02.060,Colour_Similarity_Experiment,2020.1.2,Win32,60,5fb5945709dec70f2d595766,,,,,,,,,,,,,,,,,,,,FF,,,,,,,,7,1.26566,,,,,,,,,,,,,,,,,,,,,,,,,,,,3,47,139,1,0,0,response1disk,6,-13,-2,1,0,0,rectangle,-13,-2,1,0,0,3,3,"[116,291,261,148,47,6,36,50,154,195,303,67,191,15,63,252,268,53,232,193]",-13,-2,1,0,0,0,155,154,154,95,1,,,,,,,,,,,,,,,,,,,,,
,,,,,,,,,,,,,,,,,,,,,,,,,,,,,,,,,,,,,,,,,,,5f40c462ff2ee620d5bc5acd,5fb5dd958d8154000b5e1d65,2020-11-18_20h52.02.060,Colour_Similarity_Experiment,2020.1.2,Win32,60,5fb5945709dec70f2d595766,,,,,,,,,,,,,,,,,,,,FF,,,,,,,,5,3.59918,,,,,,,,,,,,,,,,,,,,,,,,,,,,3,120,-54,1,0,0,response3disk,5,0,-9,1,0,0,rectangle,0,-9,1,0,0,3,6,"[116,291,261,148,47,6,36,50,154,195,303,67,191,15,63,252,268,53,232,193]",0,-9,1,0,0,0,156,155,155,101,1,,,,,,,,,,,,,,,,,,,,,
,,,,,,,,,,,,,,,,,,,,,,,,,,,,,,,,,,,,,,,,,,,5f40c462ff2ee620d5bc5acd,5fb5dd958d8154000b5e1d65,2020-11-18_20h52.02.060,Colour_Similarity_Experiment,2020.1.2,Win32,60,5fb5945709dec70f2d595766,,,,,,,,,,,,,,,,,,,,FF,,,,,,,,5,1.41617,,,,,,,,,,,,,,,,,,,,,,,,,,,,2,111,-80,1,0,0,response3disk,1,-1,2,1,0,0,rectangle,-1,2,1,0,0,3,7,"[116,291,261,148,47,6,36,50,154,195,303,67,191,15,63,252,268,53,232,193]",-1,2,1,0,0,0,157,156,156,85,1,,,,,,,,,,,,,,,,,,,,,
,,,,,,,,,,,,,,,,,,,,,,,,,,,,,,,,,,,,,,,,,,,5f40c462ff2ee620d5bc5acd,5fb5dd958d8154000b5e1d65,2020-11-18_20h52.02.060,Colour_Similarity_Experiment,2020.1.2,Win32,60,5fb5945709dec70f2d595766,,,,,,,,,,,,,,,,,,,,FF,,,,,,,,7,0.949645,,,,,,,,,,,,,,,,,,,,,,,,,,,,1,39,108,1,0,0,response1disk,8,-17,-4,1,0,0,rectangle,-17,-4,1,0,0,3,0,"[116,291,261,148,47,6,36,50,154,195,303,67,191,15,63,252,268,53,232,193]",-17,-4,1,0,0,0,158,157,157,27,1,,,,,,,,,,,,,,,,,,,,,
,,,,,,,,,,,,,,,,,,,,,,,,,,,,,,,,,,,,,,,,,,,5f40c462ff2ee620d5bc5acd,5fb5dd958d8154000b5e1d65,2020-11-18_20h52.02.060,Colour_Similarity_Experiment,2020.1.2,Win32,60,5fb5945709dec70f2d595766,,,,,,,,,,,,,,,,,,,,FF,,,,,,,,5,1.51624,,,,,,,,,,,,,,,,,,,,,,,,,,,,7,103,-86,1,0,0,response3disk,8,18,0,1,0,0,rectangle,18,0,1,0,0,3,7,"[116,291,261,148,47,6,36,50,154,195,303,67,191,15,63,252,268,53,232,193]",18,0,1,0,0,0,159,158,158,97,1,,,,,,,,,,,,,,,,,,,,,
,,,,,,,,,,,,,,,,,,,,,,,,,,,,,,,,,,,,,,,,,,,5f40c462ff2ee620d5bc5acd,5fb5dd958d8154000b5e1d65,2020-11-18_20h52.02.060,Colour_Similarity_Experiment,2020.1.2,Win32,60,5fb5945709dec70f2d595766,,,,,,,,,,,,,,,,,,,,FF,,,,,,,,0,1.099625,,,,,,,,,,,,,,,,,,,,,,,,,,,,4,-61,142,1,0,0,response7disk,4,-10,10,1,0,0,rectangle,-10,10,1,0,0,3,1,"[116,291,261,148,47,6,36,50,154,195,303,67,191,15,63,252,268,53,232,193]",-10,10,1,0,0,0,160,159,159,84,1,,,,,,,,,,,,,,,,,,,,,
,,,,,,,,,,,,,,,,,,,,,,,,,,,,,,,,,,,,,,,,,,,5f40c462ff2ee620d5bc5acd,5fb5dd958d8154000b5e1d65,2020-11-18_20h52.02.060,Colour_Similarity_Experiment,2020.1.2,Win32,60,5fb5945709dec70f2d595766,,,,,,,,,,,,,,,,,,,,FF,,,,,,,,0,0.8832,,,,,,,,,,,,,,,,,,,,,,,,,,,,7,-54,114,1,0,0,response7disk,7,-13,8,1,0,0,rectangle,-13,8,1,0,0,3,3,"[116,291,261,148,47,6,36,50,154,195,303,67,191,15,63,252,268,53,232,193]",-13,8,1,0,0,0,161,160,160,34,1,,,,,,,,,,,,,,,,,,,,,
,,,,,,,,,,,,,,,,,,,,,,,,,,,,,,,,,,,,,,,,,,,5f40c462ff2ee620d5bc5acd,5fb5dd958d8154000b5e1d65,2020-11-18_20h52.02.060,Colour_Similarity_Experiment,2020.1.2,Win32,60,5fb5945709dec70f2d595766,,,,,,,,,,,,,,,,,,,,PF,,,,,,,,7,1.133455,,,,,,,,,,,,,,,,,,,,,,,,,,,,1,49,96,1,0,0,response1disk,5,5,10,1,0,0,rectangle,5,10,1,0,0,3,2,"[116,291,261,148,47,6,36,50,154,195,303,67,191,15,63,252,268,53,232,193]",5,10,1,0,0,0,162,161,161,28,1,,,,,,,,,,,,,,,,,,,,,
,,,,,,,,,,,,,,,,,,,,,,,,,,,,,,,,,,,,,,,,,,,5f40c462ff2ee620d5bc5acd,5fb5dd958d8154000b5e1d65,2020-11-18_20h52.02.060,Colour_Similarity_Experiment,2020.1.2,Win32,60,5fb5945709dec70f2d595766,,,,,,,,,,,,,,,,,,,,,,,,,,,,,,,,,,,,,,,,,,,,,,,,,,,,,,,,,,,,,,,,,,,,,,,,,,,,,,,,,,,,,,,,,,,,0,0,0,0,1,,,,,,,,,,,,,,
,,,,,,,,,,,,,,,,,,,,,,,,,,,,,,,,,,,,,,,,,,,5f40c462ff2ee620d5bc5acd,5fb5dd958d8154000b5e1d65,2020-11-18_20h52.02.060,Colour_Similarity_Experiment,2020.1.2,Win32,60,5fb5945709dec70f2d595766,,,,,,,,,,,,,,,,,,,,PF,,,,,,,,7,0.84997,,,,,,,,,,,,,,,,,,,,,,,,,,,,6,59,95,1,0,0,response1disk,9,4,4,1,0,0,rectangle,4,4,1,0,0,3,3,"[116,291,261,148,47,6,36,50,154,195,303,67,191,15,63,252,268,53,232,193]",4,4,1,0,0,0,163,0,0,45,1,,,,,,,,,,,,,,,,,,,,,
,,,,,,,,,,,,,,,,,,,,,,,,,,,,,,,,,,,,,,,,,,,5f40c462ff2ee620d5bc5acd,5fb5dd958d8154000b5e1d65,2020-11-18_20h52.02.060,Colour_Similarity_Experiment,2020.1.2,Win32,60,5fb5945709dec70f2d595766,,,,,,,,,,,,,,,,,,,,PF,,,,,,,,3,1.45278,,,,,,,,,,,,,,,,,,,,,,,,,,,,5,-49,-123,1,0,0,response5disk,4,17,-6,1,0,0,rectangle,17,-6,1,0,0,3,1,"[116,291,261,148,47,6,36,50,154,195,303,67,191,15,63,252,268,53,232,193]",17,-6,1,0,0,0,164,1,1,54,1,,,,,,,,,,,,,,,,,,,,,
,,,,,,,,,,,,,,,,,,,,,,,,,,,,,,,,,,,,,,,,,,,5f40c462ff2ee620d5bc5acd,5fb5dd958d8154000b5e1d65,2020-11-18_20h52.02.060,Colour_Similarity_Experiment,2020.1.2,Win32,60,5fb5945709dec70f2d595766,,,,,,,,,,,,,,,,,,,,FF,,,,,,,,7,2.467235,,,,,,,,,,,,,,,,,,,,,,,,,,,,6,36,116,1,0,0,response1disk,3,4,17,1,0,0,rectangle,4,17,1,0,0,3,6,"[116,291,261,148,47,6,36,50,154,195,303,67,191,15,63,252,268,53,232,193]",4,17,1,0,0,0,165,2,2,21,1,,,,,,,,,,,,,,,,,,,,,
,,,,,,,,,,,,,,,,,,,,,,,,,,,,,,,,,,,,,,,,,,,5f40c462ff2ee620d5bc5acd,5fb5dd958d8154000b5e1d65,2020-11-18_20h52.02.060,Colour_Similarity_Experiment,2020.1.2,Win32,60,5fb5945709dec70f2d595766,,,,,,,,,,,,,,,,,,,,FF,,,,,,,,7,1.316395,,,,,,,,,,,,,,,,,,,,,,,,,,,,8,41,124,1,0,0,response1disk,5,-4,-1,1,0,0,rectangle,-4,-1,1,0,0,3,4,"[116,291,261,148,47,6,36,50,154,195,303,67,191,15,63,252,268,53,232,193]",-4,-1,1,0,0,0,166,3,3,152,1,,,,,,,,,,,,,,,,,,,,,
,,,,,,,,,,,,,,,,,,,,,,,,,,,,,,,,,,,,,,,,,,,5f40c462ff2ee620d5bc5acd,5fb5dd958d8154000b5e1d65,2020-11-18_20h52.02.060,Colour_Similarity_Experiment,2020.1.2,Win32,60,5fb5945709dec70f2d595766,,,,,,,,,,,,,,,,,,,,FF,,,,,,,,7,0.93338,,,,,,,,,,,,,,,,,,,,,,,,,,,,1,52,149,1,0,0,response1disk,4,11,17,1,0,0,rectangle,11,17,1,0,0,3,0,"[116,291,261,148,47,6,36,50,154,195,303,67,191,15,63,252,268,53,232,193]",11,17,1,0,0,0,167,4,4,135,1,,,,,,,,,,,,,,,,,,,,,
,,,,,,,,,,,,,,,,,,,,,,,,,,,,,,,,,,,,,,,,,,,5f40c462ff2ee620d5bc5acd,5fb5dd958d8154000b5e1d65,2020-11-18_20h52.02.060,Colour_Similarity_Experiment,2020.1.2,Win32,60,5fb5945709dec70f2d595766,,,,,,,,,,,,,,,,,,,,FF,,,,,,,,7,0.63458,,,,,,,,,,,,,,,,,,,,,,,,,,,,7,54,114,1,0,0,response1disk,5,6,10,1,0,0,rectangle,6,10,1,0,0,3,1,"[116,291,261,148,47,6,36,50,154,195,303,67,191,15,63,252,268,53,232,193]",6,10,1,0,0,0,168,5,5,156,1,,,,,,,,,,,,,,,,,,,,,
,,,,,,,,,,,,,,,,,,,,,,,,,,,,,,,,,,,,,,,,,,,5f40c462ff2ee620d5bc5acd,5fb5dd958d8154000b5e1d65,2020-11-18_20h52.02.060,Colour_Similarity_Experiment,2020.1.2,Win32,60,5fb5945709dec70f2d595766,,,,,,,,,,,,,,,,,,,,FF,,,,,,,,0,1.483065,,,,,,,,,,,,,,,,,,,,,,,,,,,,8,-83,152,1,0,0,response7disk,8,6,15,1,0,0,rectangle,6,15,1,0,0,3,0,"[116,291,261,148,47,6,36,50,154,195,303,67,191,15,63,252,268,53,232,193]",6,15,1,0,0,0,169,6,6,48,1,,,,,,,,,,,,,,,,,,,,,
,,,,,,,,,,,,,,,,,,,,,,,,,,,,,,,,,,,,,,,,,,,5f40c462ff2ee620d5bc5acd,5fb5dd958d8154000b5e1d65,2020-11-18_20h52.02.060,Colour_Similarity_Experiment,2020.1.2,Win32,60,5fb5945709dec70f2d595766,,,,,,,,,,,,,,,,,,,,PF,,,,,,,,4,2.232645,,,,,,,,,,,,,,,,,,,,,,,,,,,,5,52,-123,1,0,0,response3disk,3,-4,-14,1,0,0,rectangle,-4,-14,1,0,0,3,2,"[116,291,261,148,47,6,36,50,154,195,303,67,191,15,63,252,268,53,232,193]",-4,-14,1,0,0,0,170,7,7,109,1,,,,,,,,,,,,,,,,,,,,,
,,,,,,,,,,,,,,,,,,,,,,,,,,,,,,,,,,,,,,,,,,,5f40c462ff2ee620d5bc5acd,5fb5dd958d8154000b5e1d65,2020-11-18_20h52.02.060,Colour_Similarity_Experiment,2020.1.2,Win32,60,5fb5945709dec70f2d595766,,,,,,,,,,,,,,,,,,,,FF,,,,,,,,0,0.90015,,,,,,,,,,,,,,,,,,,,,,,,,,,,2,-42,108,1,0,0,response7disk,2,-9,11,1,0,0,rectangle,-9,11,1,0,0,3,7,"[116,291,261,148,47,6,36,50,154,195,303,67,191,15,63,252,268,53,232,193]",-9,11,1,0,0,0,171,8,8,142,1,,,,,,,,,,,,,,,,,,,,,
,,,,,,,,,,,,,,,,,,,,,,,,,,,,,,,,,,,,,,,,,,,5f40c462ff2ee620d5bc5acd,5fb5dd958d8154000b5e1d65,2020-11-18_20h52.02.060,Colour_Similarity_Experiment,2020.1.2,Win32,60,5fb5945709dec70f2d595766,,,,,,,,,,,,,,,,,,,,PF,,,,,,,,5,3.682605,,,,,,,,,,,,,,,,,,,,,,,,,,,,7,123,-44,1,0,0,response3disk,8,-10,3,1,0,0,rectangle,-10,3,1,0,0,3,7,"[116,291,261,148,47,6,36,50,154,195,303,67,191,15,63,252,268,53,232,193]",-10,3,1,0,0,0,172,9,9,140,1,,,,,,,,,,,,,,,,,,,,,
,,,,,,,,,,,,,,,,,,,,,,,,,,,,,,,,,,,,,,,,,,,5f40c462ff2ee620d5bc5acd,5fb5dd958d8154000b5e1d65,2020-11-18_20h52.02.060,Colour_Similarity_Experiment,2020.1.2,Win32,60,5fb5945709dec70f2d595766,,,,,,,,,,,,,,,,,,,,FF,,,,,,,,5,1.766725,,,,,,,,,,,,,,,,,,,,,,,,,,,,9,94,-57,1,0,0,response3disk,1,-16,10,1,0,0,rectangle,-16,10,1,0,0,3,6,"[116,291,261,148,47,6,36,50,154,195,303,67,191,15,63,252,268,53,232,193]",-16,10,1,0,0,0,173,10,10,111,1,,,,,,,,,,,,,,,,,,,,,
,,,,,,,,,,,,,,,,,,,,,,,,,,,,,,,,,,,,,,,,,,,5f40c462ff2ee620d5bc5acd,5fb5dd958d8154000b5e1d65,2020-11-18_20h52.02.060,Colour_Similarity_Experiment,2020.1.2,Win32,60,5fb5945709dec70f2d595766,,,,,,,,,,,,,,,,,,,,FF,,,,,,,,0,1.21638,,,,,,,,,,,,,,,,,,,,,,,,,,,,3,-38,125,1,0,0,response7disk,4,-14,18,1,0,0,rectangle,-14,18,1,0,0,3,3,"[116,291,261,148,47,6,36,50,154,195,303,67,191,15,63,252,268,53,232,193]",-14,18,1,0,0,0,174,11,11,110,1,,,,,,,,,,,,,,,,,,,,,
,,,,,,,,,,,,,,,,,,,,,,,,,,,,,,,,,,,,,,,,,,,5f40c462ff2ee620d5bc5acd,5fb5dd958d8154000b5e1d65,2020-11-18_20h52.02.060,Colour_Similarity_Experiment,2020.1.2,Win32,60,5fb5945709dec70f2d595766,,,,,,,,,,,,,,,,,,,,FF,,,,,,,,7,0.88292,,,,,,,,,,,,,,,,,,,,,,,,,,,,6,41,107,1,0,0,response1disk,1,-5,17,1,0,0,rectangle,-5,17,1,0,0,3,7,"[116,291,261,148,47,6,36,50,154,195,303,67,191,15,63,252,268,53,232,193]",-5,17,1,0,0,0,175,12,12,5,1,,,,,,,,,,,,,,,,,,,,,
,,,,,,,,,,,,,,,,,,,,,,,,,,,,,,,,,,,,,,,,,,,5f40c462ff2ee620d5bc5acd,5fb5dd958d8154000b5e1d65,2020-11-18_20h52.02.060,Colour_Similarity_Experiment,2020.1.2,Win32,60,5fb5945709dec70f2d595766,,,,,,,,,,,,,,,,,,,,PF,,,,,,,,7,1.016955,,,,,,,,,,,,,,,,,,,,,,,,,,,,7,51,111,1,0,0,response1disk,1,4,16,1,0,0,rectangle,4,16,1,0,0,3,7,"[116,291,261,148,47,6,36,50,154,195,303,67,191,15,63,252,268,53,232,193]",4,16,1,0,0,0,176,13,13,53,1,,,,,,,,,,,,,,,,,,,,,
,,,,,,,,,,,,,,,,,,,,,,,,,,,,,,,,,,,,,,,,,,,5f40c462ff2ee620d5bc5acd,5fb5dd958d8154000b5e1d65,2020-11-18_20h52.02.060,Colour_Similarity_Experiment,2020.1.2,Win32,60,5fb5945709dec70f2d595766,,,,,,,,,,,,,,,,,,,,PF,,,,,,,,1,1.499675,,,,,,,,,,,,,,,,,,,,,,,,,,,,9,-107,45,1,0,0,response7disk,9,0,4,1,0,0,rectangle,0,4,1,0,0,3,7,"[116,291,261,148,47,6,36,50,154,195,303,67,191,15,63,252,268,53,232,193]",0,4,1,0,0,0,177,14,14,106,1,,,,,,,,,,,,,,,,,,,,,
,,,,,,,,,,,,,,,,,,,,,,,,,,,,,,,,,,,,,,,,,,,5f40c462ff2ee620d5bc5acd,5fb5dd958d8154000b5e1d65,2020-11-18_20h52.02.060,Colour_Similarity_Experiment,2020.1.2,Win32,60,5fb5945709dec70f2d595766,,,,,,,,,,,,,,,,,,,,FF,,,,,,,,7,0.83289,,,,,,,,,,,,,,,,,,,,,,,,,,,,7,61,119,1,0,0,response1disk,4,-9,15,1,0,0,rectangle,-9,15,1,0,0,3,4,"[116,291,261,148,47,6,36,50,154,195,303,67,191,15,63,252,268,53,232,193]",-9,15,1,0,0,0,178,15,15,158,1,,,,,,,,,,,,,,,,,,,,,
,,,,,,,,,,,,,,,,,,,,,,,,,,,,,,,,,,,,,,,,,,,5f40c462ff2ee620d5bc5acd,5fb5dd958d8154000b5e1d65,2020-11-18_20h52.02.060,Colour_Similarity_Experiment,2020.1.2,Win32,60,5fb5945709dec70f2d595766,,,,,,,,,,,,,,,,,,,,FF,,,,,,,,7,0.816615,,,,,,,,,,,,,,,,,,,,,,,,,,,,2,41,97,1,0,0,response1disk,4,-2,-1,1,0,0,rectangle,-2,-1,1,0,0,3,7,"[116,291,261,148,47,6,36,50,154,195,303,67,191,15,63,252,268,53,232,193]",-2,-1,1,0,0,0,179,16,16,145,1,,,,,,,,,,,,,,,,,,,,,
,,,,,,,,,,,,,,,,,,,,,,,,,,,,,,,,,,,,,,,,,,,5f40c462ff2ee620d5bc5acd,5fb5dd958d8154000b5e1d65,2020-11-18_20h52.02.060,Colour_Similarity_Experiment,2020.1.2,Win32,60,5fb5945709dec70f2d595766,,,,,,,,,,,,,,,,,,,,FF,,,,,,,,7,0.732345,,,,,,,,,,,,,,,,,,,,,,,,,,,,6,65,117,1,0,0,response1disk,4,-1,-7,1,0,0,rectangle,-1,-7,1,0,0,3,3,"[116,291,261,148,47,6,36,50,154,195,303,67,191,15,63,252,268,53,232,193]",-1,-7,1,0,0,0,180,17,17,56,1,,,,,,,,,,,,,,,,,,,,,
,,,,,,,,,,,,,,,,,,,,,,,,,,,,,,,,,,,,,,,,,,,5f40c462ff2ee620d5bc5acd,5fb5dd958d8154000b5e1d65,2020-11-18_20h52.02.060,Colour_Similarity_Experiment,2020.1.2,Win32,60,5fb5945709dec70f2d595766,,,,,,,,,,,,,,,,,,,,FF,,,,,,,,7,0.867115,,,,,,,,,,,,,,,,,,,,,,,,,,,,3,45,120,1,0,0,response1disk,1,4,4,1,0,0,rectangle,4,4,1,0,0,3,0,"[116,291,261,148,47,6,36,50,154,195,303,67,191,15,63,252,268,53,232,193]",4,4,1,0,0,0,181,18,18,125,1,,,,,,,,,,,,,,,,,,,,,
,,,,,,,,,,,,,,,,,,,,,,,,,,,,,,,,,,,,,,,,,,,5f40c462ff2ee620d5bc5acd,5fb5dd958d8154000b5e1d65,2020-11-18_20h52.02.060,Colour_Similarity_Experiment,2020.1.2,Win32,60,5fb5945709dec70f2d595766,,,,,,,,,,,,,,,,,,,,FF,,,,,,,,7,1.167815,,,,,,,,,,,,,,,,,,,,,,,,,,,,1,48,126,1,0,0,response1disk,5,1,4,1,0,0,rectangle,1,4,1,0,0,3,3,"[116,291,261,148,47,6,36,50,154,195,303,67,191,15,63,252,268,53,232,193]",1,4,1,0,0,0,182,19,19,82,1,,,,,,,,,,,,,,,,,,,,,
,,,,,,,,,,,,,,,,,,,,,,,,,,,,,,,,,,,,,,,,,,,5f40c462ff2ee620d5bc5acd,5fb5dd958d8154000b5e1d65,2020-11-18_20h52.02.060,Colour_Similarity_Experiment,2020.1.2,Win32,60,5fb5945709dec70f2d595766,,,,,,,,,,,,,,,,,,,,PF,,,,,,,,0,0.98372,,,,,,,,,,,,,,,,,,,,,,,,,,,,4,-64,126,1,0,0,response7disk,4,-7,13,1,0,0,rectangle,-7,13,1,0,0,3,0,"[116,291,261,148,47,6,36,50,154,195,303,67,191,15,63,252,268,53,232,193]",-7,13,1,0,0,0,183,20,20,70,1,,,,,,,,,,,,,,,,,,,,,
,,,,,,,,,,,,,,,,,,,,,,,,,,,,,,,,,,,,,,,,,,,5f40c462ff2ee620d5bc5acd,5fb5dd958d8154000b5e1d65,2020-11-18_20h52.02.060,Colour_Similarity_Experiment,2020.1.2,Win32,60,5fb5945709dec70f2d595766,,,,,,,,,,,,,,,,,,,,PF,,,,,,,,7,0.83257,,,,,,,,,,,,,,,,,,,,,,,,,,,,8,63,123,1,0,0,response1disk,3,6,2,1,0,0,rectangle,6,2,1,0,0,3,7,"[116,291,261,148,47,6,36,50,154,195,303,67,191,15,63,252,268,53,232,193]",6,2,1,0,0,0,184,21,21,71,1,,,,,,,,,,,,,,,,,,,,,
,,,,,,,,,,,,,,,,,,,,,,,,,,,,,,,,,,,,,,,,,,,5f40c462ff2ee620d5bc5acd,5fb5dd958d8154000b5e1d65,2020-11-18_20h52.02.060,Colour_Similarity_Experiment,2020.1.2,Win32,60,5fb5945709dec70f2d595766,,,,,,,,,,,,,,,,,,,,PF,,,,,,,,7,1.23318,,,,,,,,,,,,,,,,,,,,,,,,,,,,5,43,91,1,0,0,response1disk,6,1,11,1,0,0,rectangle,1,11,1,0,0,3,7,"[116,291,261,148,47,6,36,50,154,195,303,67,191,15,63,252,268,53,232,193]",1,11,1,0,0,0,185,22,22,103,1,,,,,,,,,,,,,,,,,,,,,
,,,,,,,,,,,,,,,,,,,,,,,,,,,,,,,,,,,,,,,,,,,5f40c462ff2ee620d5bc5acd,5fb5dd958d8154000b5e1d65,2020-11-18_20h52.02.060,Colour_Similarity_Experiment,2020.1.2,Win32,60,5fb5945709dec70f2d595766,,,,,,,,,,,,,,,,,,,,FF,,,,,,,,7,0.917425,,,,,,,,,,,,,,,,,,,,,,,,,,,,4,37,106,1,0,0,response1disk,8,3,15,1,0,0,rectangle,3,15,1,0,0,3,7,"[116,291,261,148,47,6,36,50,154,195,303,67,191,15,63,252,268,53,232,193]",3,15,1,0,0,0,186,23,23,35,1,,,,,,,,,,,,,,,,,,,,,
,,,,,,,,,,,,,,,,,,,,,,,,,,,,,,,,,,,,,,,,,,,5f40c462ff2ee620d5bc5acd,5fb5dd958d8154000b5e1d65,2020-11-18_20h52.02.060,Colour_Similarity_Experiment,2020.1.2,Win32,60,5fb5945709dec70f2d595766,,,,,,,,,,,,,,,,,,,,FF,,,,,,,,7,0.914915,,,,,,,,,,,,,,,,,,,,,,,,,,,,6,62,143,1,0,0,response1disk,9,2,-4,1,0,0,rectangle,2,-4,1,0,0,3,2,"[116,291,261,148,47,6,36,50,154,195,303,67,191,15,63,252,268,53,232,193]",2,-4,1,0,0,0,187,24,24,160,1,,,,,,,,,,,,,,,,,,,,,
,,,,,,,,,,,,,,,,,,,,,,,,,,,,,,,,,,,,,,,,,,,5f40c462ff2ee620d5bc5acd,5fb5dd958d8154000b5e1d65,2020-11-18_20h52.02.060,Colour_Similarity_Experiment,2020.1.2,Win32,60,5fb5945709dec70f2d595766,,,,,,,,,,,,,,,,,,,,PF,,,,,,,,4,2.932625,,,,,,,,,,,,,,,,,,,,,,,,,,,,3,55,-138,1,0,0,response3disk,2,1,-6,1,0,0,rectangle,1,-6,1,0,0,3,3,"[116,291,261,148,47,6,36,50,154,195,303,67,191,15,63,252,268,53,232,193]",1,-6,1,0,0,0,188,25,25,36,1,,,,,,,,,,,,,,,,,,,,,
,,,,,,,,,,,,,,,,,,,,,,,,,,,,,,,,,,,,,,,,,,,5f40c462ff2ee620d5bc5acd,5fb5dd958d8154000b5e1d65,2020-11-18_20h52.02.060,Colour_Similarity_Experiment,2020.1.2,Win32,60,5fb5945709dec70f2d595766,,,,,,,,,,,,,,,,,,,,FF,,,,,,,,0,1.06655,,,,,,,,,,,,,,,,,,,,,,,,,,,,5,-62,124,1,0,0,response7disk,5,-10,2,1,0,0,rectangle,-10,2,1,0,0,3,1,"[116,291,261,148,47,6,36,50,154,195,303,67,191,15,63,252,268,53,232,193]",-10,2,1,0,0,0,189,26,26,19,1,,,,,,,,,,,,,,,,,,,,,
,,,,,,,,,,,,,,,,,,,,,,,,,,,,,,,,,,,,,,,,,,,5f40c462ff2ee620d5bc5acd,5fb5dd958d8154000b5e1d65,2020-11-18_20h52.02.060,Colour_Similarity_Experiment,2020.1.2,Win32,60,5fb5945709dec70f2d595766,,,,,,,,,,,,,,,,,,,,PF,,,,,,,,5,1.550255,,,,,,,,,,,,,,,,,,,,,,,,,,,,9,108,-70,1,0,0,response3disk,1,-1,0,1,0,0,rectangle,-1,0,1,0,0,3,4,"[116,291,261,148,47,6,36,50,154,195,303,67,191,15,63,252,268,53,232,193]",-1,0,1,0,0,0,190,27,27,74,1,,,,,,,,,,,,,,,,,,,,,
,,,,,,,,,,,,,,,,,,,,,,,,,,,,,,,,,,,,,,,,,,,5f40c462ff2ee620d5bc5acd,5fb5dd958d8154000b5e1d65,2020-11-18_20h52.02.060,Colour_Similarity_Experiment,2020.1.2,Win32,60,5fb5945709dec70f2d595766,,,,,,,,,,,,,,,,,,,,FF,,,,,,,,7,1.36637,,,,,,,,,,,,,,,,,,,,,,,,,,,,1,50,112,1,0,0,response1disk,6,-8,15,1,0,0,rectangle,35,-137,1,0,0,4,4,"[116,291,261,148,47,6,36,50,154,195,303,67,191,15,63,252,268,53,232,193]",2,-7,1,0,0,0,191,28,28,58,1,response3disk_3,rectangle,,,,,,,,,,,,,,,,,,,
,,,,,,,,,,,,,,,,,,,,,,,,,,,,,,,,,,,,,,,,,,,5f40c462ff2ee620d5bc5acd,5fb5dd958d8154000b5e1d65,2020-11-18_20h52.02.060,Colour_Similarity_Experiment,2020.1.2,Win32,60,5fb5945709dec70f2d595766,,,,,,,,,,,,,,,,,,,,PF,,,,,,,,7,0.8833,,,,,,,,,,,,,,,,,,,,,,,,,,,,8,45,124,1,0,0,response1disk,1,-2,5,1,0,0,rectangle,-2,5,1,0,0,4,3,"[116,291,261,148,47,6,36,50,154,195,303,67,191,15,63,252,268,53,232,193]",-2,5,1,0,0,0,192,29,29,57,1,,,,,,,,,,,,,,,,,,,,,
,,,,,,,,,,,,,,,,,,,,,,,,,,,,,,,,,,,,,,,,,,,5f40c462ff2ee620d5bc5acd,5fb5dd958d8154000b5e1d65,2020-11-18_20h52.02.060,Colour_Similarity_Experiment,2020.1.2,Win32,60,5fb5945709dec70f2d595766,,,,,,,,,,,,,,,,,,,,FF,,,,,,,,7,0.833735,,,,,,,,,,,,,,,,,,,,,,,,,,,,8,59,128,1,0,0,response1disk,4,15,6,1,0,0,rectangle,-54,-146,1,0,0,3,3,"[116,291,261,148,47,6,36,50,154,195,303,67,191,15,63,252,268,53,232,193]",2,11,1,0,0,0,193,30,30,88,1,response5disk_3,rectangle,,,,,,,,,,,,,,,,,,,
,,,,,,,,,,,,,,,,,,,,,,,,,,,,,,,,,,,,,,,,,,,5f40c462ff2ee620d5bc5acd,5fb5dd958d8154000b5e1d65,2020-11-18_20h52.02.060,Colour_Similarity_Experiment,2020.1.2,Win32,60,5fb5945709dec70f2d595766,,,,,,,,,,,,,,,,,,,,PF,,,,,,,,7,0.982895,,,,,,,,,,,,,,,,,,,,,,,,,,,,7,39,157,1,0,0,response1disk,3,6,3,1,0,0,rectangle,6,3,1,0,0,3,3,"[116,291,261,148,47,6,36,50,154,195,303,67,191,15,63,252,268,53,232,193]",6,3,1,0,0,0,194,31,31,81,1,,,,,,,,,,,,,,,,,,,,,
,,,,,,,,,,,,,,,,,,,,,,,,,,,,,,,,,,,,,,,,,,,5f40c462ff2ee620d5bc5acd,5fb5dd958d8154000b5e1d65,2020-11-18_20h52.02.060,Colour_Similarity_Experiment,2020.1.2,Win32,60,5fb5945709dec70f2d595766,,,,,,,,,,,,,,,,,,,,FF,,,,,,,,7,0.932825,,,,,,,,,,,,,,,,,,,,,,,,,,,,4,49,131,1,0,0,response1disk,1,-3,-15,1,0,0,rectangle,150,60,1,0,0,6,6,"[116,291,261,148,47,6,36,50,154,195,303,67,191,15,63,252,268,53,232,193]",8,-5,1,0,0,0,195,32,32,102,1,response1disk_3,rectangle,,,,,,,,,,,,,,,,,,,
,,,,,,,,,,,,,,,,,,,,,,,,,,,,,,,,,,,,,,,,,,,5f40c462ff2ee620d5bc5acd,5fb5dd958d8154000b5e1d65,2020-11-18_20h52.02.060,Colour_Similarity_Experiment,2020.1.2,Win32,60,5fb5945709dec70f2d595766,,,,,,,,,,,,,,,,,,,,FF,,,,,,,,7,0.88215,,,,,,,,,,,,,,,,,,,,,,,,,,,,8,36,122,1,0,0,response1disk,6,-7,5,1,0,0,rectangle,-7,5,1,0,0,6,1,"[116,291,261,148,47,6,36,50,154,195,303,67,191,15,63,252,268,53,232,193]",-7,5,1,0,0,0,196,33,33,37,1,,,,,,,,,,,,,,,,,,,,,
,,,,,,,,,,,,,,,,,,,,,,,,,,,,,,,,,,,,,,,,,,,5f40c462ff2ee620d5bc5acd,5fb5dd958d8154000b5e1d65,2020-11-18_20h52.02.060,Colour_Similarity_Experiment,2020.1.2,Win32,60,5fb5945709dec70f2d595766,,,,,,,,,,,,,,,,,,,,FF,,,,,,,,7,0.850435,,,,,,,,,,,,,,,,,,,,,,,,,,,,5,39,117,1,0,0,response1disk,1,1,4,1,0,0,rectangle,1,4,1,0,0,6,3,"[116,291,261,148,47,6,36,50,154,195,303,67,191,15,63,252,268,53,232,193]",1,4,1,0,0,0,197,34,34,131,1,,,,,,,,,,,,,,,,,,,,,
,,,,,,,,,,,,,,,,,,,,,,,,,,,,,,,,,,,,,,,,,,,5f40c462ff2ee620d5bc5acd,5fb5dd958d8154000b5e1d65,2020-11-18_20h52.02.060,Colour_Similarity_Experiment,2020.1.2,Win32,60,5fb5945709dec70f2d595766,,,,,,,,,,,,,,,,,,,,PF,,,,,,,,7,1.5157,,,,,,,,,,,,,,,,,,,,,,,,,,,,9,45,130,1,0,0,response1disk,3,10,9,1,0,0,rectangle,10,9,1,0,0,6,7,"[116,291,261,148,47,6,36,50,154,195,303,67,191,15,63,252,268,53,232,193]",10,9,1,0,0,0,198,35,35,119,1,,,,,,,,,,,,,,,,,,,,,
,,,,,,,,,,,,,,,,,,,,,,,,,,,,,,,,,,,,,,,,,,,5f40c462ff2ee620d5bc5acd,5fb5dd958d8154000b5e1d65,2020-11-18_20h52.02.060,Colour_Similarity_Experiment,2020.1.2,Win32,60,5fb5945709dec70f2d595766,,,,,,,,,,,,,,,,,,,,FF,,,,,,,,6,3.58283,,,,,,,,,,,,,,,,,,,,,,,,,,,,1,137,57,1,0,0,response1disk,2,-10,1,1,0,0,rectangle,-10,1,1,0,0,6,0,"[116,291,261,148,47,6,36,50,154,195,303,67,191,15,63,252,268,53,232,193]",-10,1,1,0,0,0,199,36,36,2,1,,,,,,,,,,,,,,,,,,,,,
,,,,,,,,,,,,,,,,,,,,,,,,,,,,,,,,,,,,,,,,,,,5f40c462ff2ee620d5bc5acd,5fb5dd958d8154000b5e1d65,2020-11-18_20h52.02.060,Colour_Similarity_Experiment,2020.1.2,Win32,60,5fb5945709dec70f2d595766,,,,,,,,,,,,,,,,,,,,PF,,,,,,,,7,0.732445,,,,,,,,,,,,,,,,,,,,,,,,,,,,5,53,128,1,0,0,response1disk,1,-1,-1,1,0,0,rectangle,-1,-1,1,0,0,6,1,"[116,291,261,148,47,6,36,50,154,195,303,67,191,15,63,252,268,53,232,193]",-1,-1,1,0,0,0,200,37,37,159,1,,,,,,,,,,,,,,,,,,,,,
,,,,,,,,,,,,,,,,,,,,,,,,,,,,,,,,,,,,,,,,,,,5f40c462ff2ee620d5bc5acd,5fb5dd958d8154000b5e1d65,2020-11-18_20h52.02.060,Colour_Similarity_Experiment,2020.1.2,Win32,60,5fb5945709dec70f2d595766,,,,,,,,,,,,,,,,,,,,PF,,,,,,,,7,0.73271,,,,,,,,,,,,,,,,,,,,,,,,,,,,3,33,106,1,0,0,response1disk,9,-2,-9,1,0,0,rectangle,-2,-9,1,0,0,6,1,"[116,291,261,148,47,6,36,50,154,195,303,67,191,15,63,252,268,53,232,193]",-2,-9,1,0,0,0,201,38,38,79,1,,,,,,,,,,,,,,,,,,,,,
,,,,,,,,,,,,,,,,,,,,,,,,,,,,,,,,,,,,,,,,,,,5f40c462ff2ee620d5bc5acd,5fb5dd958d8154000b5e1d65,2020-11-18_20h52.02.060,Colour_Similarity_Experiment,2020.1.2,Win32,60,5fb5945709dec70f2d595766,,,,,,,,,,,,,,,,,,,,FF,,,,,,,,7,0.76652,,,,,,,,,,,,,,,,,,,,,,,,,,,,9,40,116,1,0,0,response1disk,6,3,7,1,0,0,rectangle,3,7,1,0,0,6,3,"[116,291,261,148,47,6,36,50,154,195,303,67,191,15,63,252,268,53,232,193]",3,7,1,0,0,0,202,39,39,117,1,,,,,,,,,,,,,,,,,,,,,
,,,,,,,,,,,,,,,,,,,,,,,,,,,,,,,,,,,,,,,,,,,5f40c462ff2ee620d5bc5acd,5fb5dd958d8154000b5e1d65,2020-11-18_20h52.02.060,Colour_Similarity_Experiment,2020.1.2,Win32,60,5fb5945709dec70f2d595766,,,,,,,,,,,,,,,,,,,,PF,,,,,,,,7,0.801255,,,,,,,,,,,,,,,,,,,,,,,,,,,,3,47,122,1,0,0,response1disk,1,-5,2,1,0,0,rectangle,-5,2,1,0,0,6,1,"[116,291,261,148,47,6,36,50,154,195,303,67,191,15,63,252,268,53,232,193]",-5,2,1,0,0,0,203,40,40,96,1,,,,,,,,,,,,,,,,,,,,,
,,,,,,,,,,,,,,,,,,,,,,,,,,,,,,,,,,,,,,,,,,,5f40c462ff2ee620d5bc5acd,5fb5dd958d8154000b5e1d65,2020-11-18_20h52.02.060,Colour_Similarity_Experiment,2020.1.2,Win32,60,5fb5945709dec70f2d595766,,,,,,,,,,,,,,,,,,,,PF,,,,,,,,7,0.94944,,,,,,,,,,,,,,,,,,,,,,,,,,,,9,40,143,1,0,0,response1disk,4,-11,8,1,0,0,rectangle,-11,8,1,0,0,6,7,"[116,291,261,148,47,6,36,50,154,195,303,67,191,15,63,252,268,53,232,193]",-11,8,1,0,0,0,204,41,41,114,1,,,,,,,,,,,,,,,,,,,,,
,,,,,,,,,,,,,,,,,,,,,,,,,,,,,,,,,,,,,,,,,,,5f40c462ff2ee620d5bc5acd,5fb5dd958d8154000b5e1d65,2020-11-18_20h52.02.060,Colour_Similarity_Experiment,2020.1.2,Win32,60,5fb5945709dec70f2d595766,,,,,,,,,,,,,,,,,,,,PF,,,,,,,,7,0.984015,,,,,,,,,,,,,,,,,,,,,,,,,,,,7,54,130,1,0,0,response1disk,9,5,2,1,0,0,rectangle,5,2,1,0,0,6,6,"[116,291,261,148,47,6,36,50,154,195,303,67,191,15,63,252,268,53,232,193]",5,2,1,0,0,0,205,42,42,10,1,,,,,,,,,,,,,,,,,,,,,
,,,,,,,,,,,,,,,,,,,,,,,,,,,,,,,,,,,,,,,,,,,5f40c462ff2ee620d5bc5acd,5fb5dd958d8154000b5e1d65,2020-11-18_20h52.02.060,Colour_Similarity_Experiment,2020.1.2,Win32,60,5fb5945709dec70f2d595766,,,,,,,,,,,,,,,,,,,,PF,,,,,,,,7,4.882405,,,,,,,,,,,,,,,,,,,,,,,,,,,,2,61,142,1,0,0,response1disk,6,1,-3,1,0,0,rectangle,1,-3,1,0,0,6,6,"[116,291,261,148,47,6,36,50,154,195,303,67,191,15,63,252,268,53,232,193]",1,-3,1,0,0,0,206,43,43,113,1,,,,,,,,,,,,,,,,,,,,,
