key_resp.keys,key_resp.rt,key_resp_16.keys,key_resp_16.rt,key_resp_2.keys,key_resp_2.rt,X Scale,ratio_pxpermm,screen_size_x,screen_size_y,testsize,key_resp_3.keys,key_resp_3.rt,key_resp_4.keys,key_resp_4.rt,line_size,key_resp_5.keys,key_resp_5.rt,key_resp_6.keys,key_resp_6.rt,key_resp_8.keys,key_resp_8.rt,key_resp_7.keys,key_resp_7.rt,key_resp_12.keys,key_resp_12.rt,key_resp_11.keys,key_resp_11.rt,key_resp_18.keys,key_resp_18.rt,key_resp_21.keys,key_resp_21.rt,key_resp_13.keys,key_resp_13.rt,key_resp_19.keys,key_resp_19.rt,ballposx,viewer_distance,trials.thisRepN,trials.thisTrialN,trials.thisN,trials.thisIndex,trials.ran,participant,session,date,expName,psychopyVersion,OS,frameRate,study_id,viewerdistancecm,DVA_to_distance,radius_F,radius_P,r_F,R_P,key_resp_20.keys,key_resp_20.rt,key_resp_14.keys,key_resp_14.rt,key_resp_15.keys,key_resp_15.rt,key_resp_17.keys,key_resp_17.rt,key_resp_9.keys,key_resp_9.rt,key_resp_10.keys,key_resp_10.rt,Colour_1,Ecc,mouse_5.x,mouse_5.y,mouse_5.leftButton,mouse_5.midButton,mouse_5.rightButton,mouse_5.clicked_name,Colour_2,similarity,response_time,mouse_10.x,mouse_10.y,mouse_10.leftButton,mouse_10.midButton,mouse_10.rightButton,mouse_10.clicked_name,mouse_7.x,mouse_7.y,mouse_7.leftButton,mouse_7.midButton,mouse_7.rightButton,mouse_7.clicked_name,catchprac,catchnumberprac,mouse_6.x,mouse_6.y,mouse_6.leftButton,mouse_6.midButton,mouse_6.rightButton,mouse_6.clicked_name,duringprac.thisRepN,duringprac.thisTrialN,duringprac.thisN,duringprac.thisIndex,duringprac.ran,key_resp_22.keys,key_resp_22.rt,Colour1,mouse.x,mouse.y,mouse.leftButton,mouse.midButton,mouse.rightButton,mouse.clicked_name,Colour2,mouse_2.x,mouse_2.y,mouse_2.leftButton,mouse_2.midButton,mouse_2.rightButton,mouse_2.clicked_name,mouse_3.x,mouse_3.y,mouse_3.leftButton,mouse_3.midButton,mouse_3.rightButton,catchresponse,catchnumber,catchtrialorder,mouse_11.x,mouse_11.y,mouse_11.leftButton,mouse_11.midButton,mouse_11.rightButton,trials_2.thisRepN,trialnumber,trials_2.thisTrialN,trials_2.thisN,trials_2.thisIndex,trials_2.ran,mouse_3.clicked_name,mouse_11.clicked_name,trials_3.thisRepN,trials_3.thisTrialN,trials_3.thisN,trials_3.thisIndex,trials_3.ran,answer1,rt1,answer2,rt2,answer3,rt3,answer4,rt4,answer5,rt5,answer6,rt6,answer7,rt7
space,2.818355,space,0.91832,space,5.44901,39.9,3.99,342.3558897,192.481203,1366,space,28.847995,space,12.269105,79.8,space,7.5443,space,5.564385,space,1.342055,space,3.33366,space,6.045135,space,2.25959,space,4.81374,space,0.5265,space,1.35024,return,51.6371,-1602.318,2243.122284,0,0,0,0,1,5f514e2a5552dd37bc2060f3,5fb5d986fb12541d19833626,2020-11-19_02h34.00.585,Colour_Similarity_Experiment,2020.1.2,Win32,60,5fb5945709dec70f2d595766,,,,,,,,,,,,,,,,,,,,,,,,,,,,,,,,,,,,,,,,,,,,,,,,,,,,,,,,,,,,,,,,,,,,,,,,,,,,,,,,,,,,,,,,,,,,,,,,,,,,,,,,,,,,,,
,,,,,,,,,,,,,,,,,,,,,,,,,,,,,,,,,,return,10.03382,-725.346,1327.620373,1,0,1,0,1,5f514e2a5552dd37bc2060f3,5fb5d986fb12541d19833626,2020-11-19_02h34.00.585,Colour_Similarity_Experiment,2020.1.2,Win32,60,5fb5945709dec70f2d595766,,,,,,,,,,,,,,,,,,,,,,,,,,,,,,,,,,,,,,,,,,,,,,,,,,,,,,,,,,,,,,,,,,,,,,,,,,,,,,,,,,,,,,,,,,,,,,,,,,,,,,,,,,,,,,
,,,,,,,,,,,,,,,,,,,,,,,,,,,,,,,,,,return,9.985565,-719.199,1321.203303,2,0,2,0,1,5f514e2a5552dd37bc2060f3,5fb5d986fb12541d19833626,2020-11-19_02h34.00.585,Colour_Similarity_Experiment,2020.1.2,Win32,60,5fb5945709dec70f2d595766,,,,,,,,,,,,,,,,,,,,,,,,,,,,,,,,,,,,,,,,,,,,,,,,,,,,,,,,,,,,,,,,,,,,,,,,,,,,,,,,,,,,,,,,,,,,,,,,,,,,,,,,,,,,,,
,,,,,,,,,,,,,,,,,,,,,,,,,,,,,,,,,,return,10.01749,-721.248,1323.342326,3,0,3,0,1,5f514e2a5552dd37bc2060f3,5fb5d986fb12541d19833626,2020-11-19_02h34.00.585,Colour_Similarity_Experiment,2020.1.2,Win32,60,5fb5945709dec70f2d595766,,,,,,,,,,,,,,,,,,,,,,,,,,,,,,,,,,,,,,,,,,,,,,,,,,,,,,,,,,,,,,,,,,,,,,,,,,,,,,,,,,,,,,,,,,,,,,,,,,,,,,,,,,,,,,
,,,,,,,,,,,,,,,,,,,,,,,,,,,,,,,,,,return,9.938575,-713.052,1314.786234,4,0,4,0,1,5f514e2a5552dd37bc2060f3,5fb5d986fb12541d19833626,2020-11-19_02h34.00.585,Colour_Similarity_Experiment,2020.1.2,Win32,60,5fb5945709dec70f2d595766,,,,,,,,,,,,,,,,,,,,,,,,,,,,,,,,,,,,,,,,,,,,,,,,,,,,,,,,,,,,,,,,,,,,,,,,,,,,,,,,,,,,,,,,,,,,,,,,,,,,,,,,,,,,,,
,,,,,,,,,,,,,,,,,,,,,,,,,,,,,,,,,,,,,,,,,,,5f514e2a5552dd37bc2060f3,5fb5d986fb12541d19833626,2020-11-19_02h34.00.585,Colour_Similarity_Experiment,2020.1.2,Win32,60,5fb5945709dec70f2d595766,151,26.35713862,157.7474746,1051.649831,105.1649831,473.2424238,space,4.22096,space,5.8259,space,12.959575,space,2.352175,space,1.706225,space,3.79632,3,PF,73,-31,1,0,0,response3disk_5,3,5,12.981915,6,-7,1,0,0,rectangle_8,45,102,1,0,0,response1disk_7,7,7,0,1,1,0,0,rectangle_4,0,0,0,4,1,,,,,,,,,,,,,,,,,,,,,,,,,,,,,,,,,,,,,,,,,,,,,,,,,,,,,,,,
,,,,,,,,,,,,,,,,,,,,,,,,,,,,,,,,,,,,,,,,,,,5f514e2a5552dd37bc2060f3,5fb5d986fb12541d19833626,2020-11-19_02h34.00.585,Colour_Similarity_Experiment,2020.1.2,Win32,60,5fb5945709dec70f2d595766,,,,,,,,,,,,,,,,,,,7,PF,47,88,1,0,0,response1disk_5,5,7,2.850175,0,-3,1,0,0,rectangle_8,0,-3,1,0,0,,,7,0,-3,1,0,0,,0,1,1,2,1,,,,,,,,,,,,,,,,,,,,,,,,,,,,,,,,,,,,,,,,,,,,,,,,,,,,,,,,
,,,,,,,,,,,,,,,,,,,,,,,,,,,,,,,,,,,,,,,,,,,5f514e2a5552dd37bc2060f3,5fb5d986fb12541d19833626,2020-11-19_02h34.00.585,Colour_Similarity_Experiment,2020.1.2,Win32,60,5fb5945709dec70f2d595766,,,,,,,,,,,,,,,,,,,5,FF,54,111,1,0,0,response1disk_5,6,7,3.025805,0,0,1,0,0,rectangle_8,34,76,1,0,0,response1disk_7,7,7,3,3,1,0,0,rectangle_4,0,2,2,0,1,,,,,,,,,,,,,,,,,,,,,,,,,,,,,,,,,,,,,,,,,,,,,,,,,,,,,,,,
,,,,,,,,,,,,,,,,,,,,,,,,,,,,,,,,,,,,,,,,,,,5f514e2a5552dd37bc2060f3,5fb5d986fb12541d19833626,2020-11-19_02h34.00.585,Colour_Similarity_Experiment,2020.1.2,Win32,60,5fb5945709dec70f2d595766,,,,,,,,,,,,,,,,,,,5,FF,20,73,1,0,0,response1disk_5,7,7,1.81707,4,6,1,0,0,rectangle_8,4,6,1,0,0,,,7,4,6,1,0,0,,0,3,3,3,1,,,,,,,,,,,,,,,,,,,,,,,,,,,,,,,,,,,,,,,,,,,,,,,,,,,,,,,,
,,,,,,,,,,,,,,,,,,,,,,,,,,,,,,,,,,,,,,,,,,,5f514e2a5552dd37bc2060f3,5fb5d986fb12541d19833626,2020-11-19_02h34.00.585,Colour_Similarity_Experiment,2020.1.2,Win32,60,5fb5945709dec70f2d595766,,,,,,,,,,,,,,,,,,,3,FF,86,-38,1,0,0,response3disk_5,2,5,2.944795,4,3,1,0,0,rectangle_8,4,3,1,0,0,,,7,4,3,1,0,0,,0,4,4,5,1,,,,,,,,,,,,,,,,,,,,,,,,,,,,,,,,,,,,,,,,,,,,,,,,,,,,,,,,
,,,,,,,,,,,,,,,,,,,,,,,,,,,,,,,,,,,,,,,,,,,5f514e2a5552dd37bc2060f3,5fb5d986fb12541d19833626,2020-11-19_02h34.00.585,Colour_Similarity_Experiment,2020.1.2,Win32,60,5fb5945709dec70f2d595766,,,,,,,,,,,,,,,,,,,4,PF,39,89,1,0,0,response1disk_5,8,7,1.525905,-3,3,1,0,0,rectangle_8,-3,3,1,0,0,,,7,-3,3,1,0,0,,0,5,5,1,1,,,,,,,,,,,,,,,,,,,,,,,,,,,,,,,,,,,,,,,,,,,,,,,,,,,,,,,,
,,,,,,,,,,,,,,,,,,,,,,,,,,,,,,,,,,,,,,,,,,,5f514e2a5552dd37bc2060f3,5fb5d986fb12541d19833626,2020-11-19_02h34.00.585,Colour_Similarity_Experiment,2020.1.2,Win32,60,5fb5945709dec70f2d595766,,,,,,,,,,,,,,,,,,,7,PF,-40,102,1,0,0,response7disk_5,7,0,3.158415,6,2,1,0,0,rectangle_8,6,2,1,0,0,,,7,6,2,1,0,0,,0,6,6,6,1,,,,,,,,,,,,,,,,,,,,,,,,,,,,,,,,,,,,,,,,,,,,,,,,,,,,,,,,
,,,,,,,,,,,,,,,,,,,,,,,,,,,,,,,,,,,,,,,,,,,5f514e2a5552dd37bc2060f3,5fb5d986fb12541d19833626,2020-11-19_02h34.00.585,Colour_Similarity_Experiment,2020.1.2,Win32,60,5fb5945709dec70f2d595766,,,,,,,,,,,,,,,,,,,,FF,,,,,,,,7,3.942445,,,,,,,,,,,,,,,,,,,,,,,,,,space,3.320105,8,42,107,1,0,0,response1disk,2,-3,-11,1,0,0,rectangle,-3,-11,1,0,0,,4,"[61,91,176,68,219,233,89,169,14,258,127,84,152,289,94,136,99,154,287,282]",-3,-11,1,0,0,0,1,0,0,22,1,,,,,,,,,,,,,,,,,,,,,
,,,,,,,,,,,,,,,,,,,,,,,,,,,,,,,,,,,,,,,,,,,5f514e2a5552dd37bc2060f3,5fb5d986fb12541d19833626,2020-11-19_02h34.00.585,Colour_Similarity_Experiment,2020.1.2,Win32,60,5fb5945709dec70f2d595766,,,,,,,,,,,,,,,,,,,,PF,,,,,,,,7,7.16629,,,,,,,,,,,,,,,,,,,,,,,,,,,,6,46,93,1,0,0,response1disk,1,-1,-1,1,0,0,rectangle,-1,-1,1,0,0,,5,"[61,91,176,68,219,233,89,169,14,258,127,84,152,289,94,136,99,154,287,282]",-1,-1,1,0,0,0,2,1,1,46,1,,,,,,,,,,,,,,,,,,,,,
,,,,,,,,,,,,,,,,,,,,,,,,,,,,,,,,,,,,,,,,,,,5f514e2a5552dd37bc2060f3,5fb5d986fb12541d19833626,2020-11-19_02h34.00.585,Colour_Similarity_Experiment,2020.1.2,Win32,60,5fb5945709dec70f2d595766,,,,,,,,,,,,,,,,,,,,FF,,,,,,,,0,1.44046,,,,,,,,,,,,,,,,,,,,,,,,,,,,1,-35,97,1,0,0,response7disk,1,1,-3,1,0,0,rectangle,1,-3,1,0,0,,5,"[61,91,176,68,219,233,89,169,14,258,127,84,152,289,94,136,99,154,287,282]",1,-3,1,0,0,0,3,2,2,151,1,,,,,,,,,,,,,,,,,,,,,
,,,,,,,,,,,,,,,,,,,,,,,,,,,,,,,,,,,,,,,,,,,5f514e2a5552dd37bc2060f3,5fb5d986fb12541d19833626,2020-11-19_02h34.00.585,Colour_Similarity_Experiment,2020.1.2,Win32,60,5fb5945709dec70f2d595766,,,,,,,,,,,,,,,,,,,,PF,,,,,,,,4,2.29961,,,,,,,,,,,,,,,,,,,,,,,,,,,,4,35,-89,1,0,0,response3disk,5,-1,-6,1,0,0,rectangle,-1,-6,1,0,0,,1,"[61,91,176,68,219,233,89,169,14,258,127,84,152,289,94,136,99,154,287,282]",-1,-6,1,0,0,0,4,3,3,49,1,,,,,,,,,,,,,,,,,,,,,
,,,,,,,,,,,,,,,,,,,,,,,,,,,,,,,,,,,,,,,,,,,5f514e2a5552dd37bc2060f3,5fb5d986fb12541d19833626,2020-11-19_02h34.00.585,Colour_Similarity_Experiment,2020.1.2,Win32,60,5fb5945709dec70f2d595766,,,,,,,,,,,,,,,,,,,,FF,,,,,,,,7,1.105985,,,,,,,,,,,,,,,,,,,,,,,,,,,,3,31,85,1,0,0,response1disk,8,11,-4,1,0,0,rectangle,11,-4,1,0,0,,4,"[61,91,176,68,219,233,89,169,14,258,127,84,152,289,94,136,99,154,287,282]",11,-4,1,0,0,0,5,4,4,44,1,,,,,,,,,,,,,,,,,,,,,
,,,,,,,,,,,,,,,,,,,,,,,,,,,,,,,,,,,,,,,,,,,5f514e2a5552dd37bc2060f3,5fb5d986fb12541d19833626,2020-11-19_02h34.00.585,Colour_Similarity_Experiment,2020.1.2,Win32,60,5fb5945709dec70f2d595766,,,,,,,,,,,,,,,,,,,,FF,,,,,,,,7,1.143115,,,,,,,,,,,,,,,,,,,,,,,,,,,,6,36,84,1,0,0,response1disk,8,-3,-12,1,0,0,rectangle,-3,-12,1,0,0,,1,"[61,91,176,68,219,233,89,169,14,258,127,84,152,289,94,136,99,154,287,282]",-3,-12,1,0,0,0,6,5,5,133,1,,,,,,,,,,,,,,,,,,,,,
,,,,,,,,,,,,,,,,,,,,,,,,,,,,,,,,,,,,,,,,,,,5f514e2a5552dd37bc2060f3,5fb5d986fb12541d19833626,2020-11-19_02h34.00.585,Colour_Similarity_Experiment,2020.1.2,Win32,60,5fb5945709dec70f2d595766,,,,,,,,,,,,,,,,,,,,FF,,,,,,,,7,1.186705,,,,,,,,,,,,,,,,,,,,,,,,,,,,4,37,82,1,0,0,response1disk,9,0,-3,1,0,0,rectangle,0,-3,1,0,0,,4,"[61,91,176,68,219,233,89,169,14,258,127,84,152,289,94,136,99,154,287,282]",0,-3,1,0,0,0,7,6,6,90,1,,,,,,,,,,,,,,,,,,,,,
,,,,,,,,,,,,,,,,,,,,,,,,,,,,,,,,,,,,,,,,,,,5f514e2a5552dd37bc2060f3,5fb5d986fb12541d19833626,2020-11-19_02h34.00.585,Colour_Similarity_Experiment,2020.1.2,Win32,60,5fb5945709dec70f2d595766,,,,,,,,,,,,,,,,,,,,PF,,,,,,,,7,1.101345,,,,,,,,,,,,,,,,,,,,,,,,,,,,8,23,65,1,0,0,response1disk,5,1,2,1,0,0,rectangle,1,2,1,0,0,,0,"[61,91,176,68,219,233,89,169,14,258,127,84,152,289,94,136,99,154,287,282]",1,2,1,0,0,0,8,7,7,98,1,,,,,,,,,,,,,,,,,,,,,
,,,,,,,,,,,,,,,,,,,,,,,,,,,,,,,,,,,,,,,,,,,5f514e2a5552dd37bc2060f3,5fb5d986fb12541d19833626,2020-11-19_02h34.00.585,Colour_Similarity_Experiment,2020.1.2,Win32,60,5fb5945709dec70f2d595766,,,,,,,,,,,,,,,,,,,,FF,,,,,,,,7,1.135395,,,,,,,,,,,,,,,,,,,,,,,,,,,,1,36,72,1,0,0,response1disk,5,5,2,1,0,0,rectangle,5,2,1,0,0,,1,"[61,91,176,68,219,233,89,169,14,258,127,84,152,289,94,136,99,154,287,282]",5,2,1,0,0,0,9,8,8,82,1,,,,,,,,,,,,,,,,,,,,,
,,,,,,,,,,,,,,,,,,,,,,,,,,,,,,,,,,,,,,,,,,,5f514e2a5552dd37bc2060f3,5fb5d986fb12541d19833626,2020-11-19_02h34.00.585,Colour_Similarity_Experiment,2020.1.2,Win32,60,5fb5945709dec70f2d595766,,,,,,,,,,,,,,,,,,,,FF,,,,,,,,7,1.085305,,,,,,,,,,,,,,,,,,,,,,,,,,,,2,26,74,1,0,0,response1disk,7,-1,6,1,0,0,rectangle,-1,6,1,0,0,,5,"[61,91,176,68,219,233,89,169,14,258,127,84,152,289,94,136,99,154,287,282]",-1,6,1,0,0,0,10,9,9,63,1,,,,,,,,,,,,,,,,,,,,,
,,,,,,,,,,,,,,,,,,,,,,,,,,,,,,,,,,,,,,,,,,,5f514e2a5552dd37bc2060f3,5fb5d986fb12541d19833626,2020-11-19_02h34.00.585,Colour_Similarity_Experiment,2020.1.2,Win32,60,5fb5945709dec70f2d595766,,,,,,,,,,,,,,,,,,,,PF,,,,,,,,0,1.153305,,,,,,,,,,,,,,,,,,,,,,,,,,,,5,-53,91,1,0,0,response7disk,5,6,-3,1,0,0,rectangle,6,-3,1,0,0,,2,"[61,91,176,68,219,233,89,169,14,258,127,84,152,289,94,136,99,154,287,282]",6,-3,1,0,0,0,11,10,10,94,1,,,,,,,,,,,,,,,,,,,,,
,,,,,,,,,,,,,,,,,,,,,,,,,,,,,,,,,,,,,,,,,,,5f514e2a5552dd37bc2060f3,5fb5d986fb12541d19833626,2020-11-19_02h34.00.585,Colour_Similarity_Experiment,2020.1.2,Win32,60,5fb5945709dec70f2d595766,,,,,,,,,,,,,,,,,,,,PF,,,,,,,,0,1.139645,,,,,,,,,,,,,,,,,,,,,,,,,,,,1,-39,90,1,0,0,response7disk,1,-1,4,1,0,0,rectangle,-1,4,1,0,0,,4,"[61,91,176,68,219,233,89,169,14,258,127,84,152,289,94,136,99,154,287,282]",-1,4,1,0,0,0,12,11,11,76,1,,,,,,,,,,,,,,,,,,,,,
,,,,,,,,,,,,,,,,,,,,,,,,,,,,,,,,,,,,,,,,,,,5f514e2a5552dd37bc2060f3,5fb5d986fb12541d19833626,2020-11-19_02h34.00.585,Colour_Similarity_Experiment,2020.1.2,Win32,60,5fb5945709dec70f2d595766,,,,,,,,,,,,,,,,,,,,PF,,,,,,,,0,1.117595,,,,,,,,,,,,,,,,,,,,,,,,,,,,3,-27,71,1,0,0,response7disk,3,0,7,1,0,0,rectangle,0,7,1,0,0,,6,"[61,91,176,68,219,233,89,169,14,258,127,84,152,289,94,136,99,154,287,282]",0,7,1,0,0,0,13,12,12,4,1,,,,,,,,,,,,,,,,,,,,,
,,,,,,,,,,,,,,,,,,,,,,,,,,,,,,,,,,,,,,,,,,,5f514e2a5552dd37bc2060f3,5fb5d986fb12541d19833626,2020-11-19_02h34.00.585,Colour_Similarity_Experiment,2020.1.2,Win32,60,5fb5945709dec70f2d595766,,,,,,,,,,,,,,,,,,,,PF,,,,,,,,7,1.699335,,,,,,,,,,,,,,,,,,,,,,,,,,,,9,30,88,1,0,0,response1disk,2,-2,0,1,0,0,rectangle,66,37,1,0,0,6,6,"[61,91,176,68,219,233,89,169,14,258,127,84,152,289,94,136,99,154,287,282]",9,-1,1,0,0,0,14,13,13,157,1,response1disk_3,rectangle,,,,,,,,,,,,,,,,,,,
,,,,,,,,,,,,,,,,,,,,,,,,,,,,,,,,,,,,,,,,,,,5f514e2a5552dd37bc2060f3,5fb5d986fb12541d19833626,2020-11-19_02h34.00.585,Colour_Similarity_Experiment,2020.1.2,Win32,60,5fb5945709dec70f2d595766,,,,,,,,,,,,,,,,,,,,PF,,,,,,,,7,1.15646,,,,,,,,,,,,,,,,,,,,,,,,,,,,6,30,87,1,0,0,response1disk,9,-3,0,1,0,0,rectangle,-3,0,1,0,0,6,4,"[61,91,176,68,219,233,89,169,14,258,127,84,152,289,94,136,99,154,287,282]",-3,0,1,0,0,0,15,14,14,45,1,,,,,,,,,,,,,,,,,,,,,
,,,,,,,,,,,,,,,,,,,,,,,,,,,,,,,,,,,,,,,,,,,5f514e2a5552dd37bc2060f3,5fb5d986fb12541d19833626,2020-11-19_02h34.00.585,Colour_Similarity_Experiment,2020.1.2,Win32,60,5fb5945709dec70f2d595766,,,,,,,,,,,,,,,,,,,,FF,,,,,,,,5,2.067615,,,,,,,,,,,,,,,,,,,,,,,,,,,,7,82,-31,1,0,0,response3disk,5,-8,8,1,0,0,rectangle,-8,8,1,0,0,6,0,"[61,91,176,68,219,233,89,169,14,258,127,84,152,289,94,136,99,154,287,282]",-8,8,1,0,0,0,16,15,15,156,1,,,,,,,,,,,,,,,,,,,,,
,,,,,,,,,,,,,,,,,,,,,,,,,,,,,,,,,,,,,,,,,,,5f514e2a5552dd37bc2060f3,5fb5d986fb12541d19833626,2020-11-19_02h34.00.585,Colour_Similarity_Experiment,2020.1.2,Win32,60,5fb5945709dec70f2d595766,,,,,,,,,,,,,,,,,,,,PF,,,,,,,,5,2.76187,,,,,,,,,,,,,,,,,,,,,,,,,,,,1,92,-34,1,0,0,response3disk,9,8,2,1,0,0,rectangle,8,2,1,0,0,6,1,"[61,91,176,68,219,233,89,169,14,258,127,84,152,289,94,136,99,154,287,282]",8,2,1,0,0,0,17,16,16,15,1,,,,,,,,,,,,,,,,,,,,,
,,,,,,,,,,,,,,,,,,,,,,,,,,,,,,,,,,,,,,,,,,,5f514e2a5552dd37bc2060f3,5fb5d986fb12541d19833626,2020-11-19_02h34.00.585,Colour_Similarity_Experiment,2020.1.2,Win32,60,5fb5945709dec70f2d595766,,,,,,,,,,,,,,,,,,,,PF,,,,,,,,7,1.484255,,,,,,,,,,,,,,,,,,,,,,,,,,,,8,35,95,1,0,0,response1disk,3,11,3,1,0,0,rectangle,11,3,1,0,0,6,3,"[61,91,176,68,219,233,89,169,14,258,127,84,152,289,94,136,99,154,287,282]",11,3,1,0,0,0,18,17,17,71,1,,,,,,,,,,,,,,,,,,,,,
,,,,,,,,,,,,,,,,,,,,,,,,,,,,,,,,,,,,,,,,,,,5f514e2a5552dd37bc2060f3,5fb5d986fb12541d19833626,2020-11-19_02h34.00.585,Colour_Similarity_Experiment,2020.1.2,Win32,60,5fb5945709dec70f2d595766,,,,,,,,,,,,,,,,,,,,PF,,,,,,,,7,1.23155,,,,,,,,,,,,,,,,,,,,,,,,,,,,5,34,63,1,0,0,response1disk,1,-2,-4,1,0,0,rectangle,-2,-4,1,0,0,6,3,"[61,91,176,68,219,233,89,169,14,258,127,84,152,289,94,136,99,154,287,282]",-2,-4,1,0,0,0,19,18,18,159,1,,,,,,,,,,,,,,,,,,,,,
,,,,,,,,,,,,,,,,,,,,,,,,,,,,,,,,,,,,,,,,,,,5f514e2a5552dd37bc2060f3,5fb5d986fb12541d19833626,2020-11-19_02h34.00.585,Colour_Similarity_Experiment,2020.1.2,Win32,60,5fb5945709dec70f2d595766,,,,,,,,,,,,,,,,,,,,PF,,,,,,,,0,0.931085,,,,,,,,,,,,,,,,,,,,,,,,,,,,9,-29,63,1,0,0,response7disk,9,0,2,1,0,0,rectangle,0,2,1,0,0,6,1,"[61,91,176,68,219,233,89,169,14,258,127,84,152,289,94,136,99,154,287,282]",0,2,1,0,0,0,20,19,19,106,1,,,,,,,,,,,,,,,,,,,,,
,,,,,,,,,,,,,,,,,,,,,,,,,,,,,,,,,,,,,,,,,,,5f514e2a5552dd37bc2060f3,5fb5d986fb12541d19833626,2020-11-19_02h34.00.585,Colour_Similarity_Experiment,2020.1.2,Win32,60,5fb5945709dec70f2d595766,,,,,,,,,,,,,,,,,,,,FF,,,,,,,,7,1.1555,,,,,,,,,,,,,,,,,,,,,,,,,,,,5,20,86,1,0,0,response1disk,8,-3,10,1,0,0,rectangle,-3,10,1,0,0,6,1,"[61,91,176,68,219,233,89,169,14,258,127,84,152,289,94,136,99,154,287,282]",-3,10,1,0,0,0,21,20,20,16,1,,,,,,,,,,,,,,,,,,,,,
,,,,,,,,,,,,,,,,,,,,,,,,,,,,,,,,,,,,,,,,,,,5f514e2a5552dd37bc2060f3,5fb5d986fb12541d19833626,2020-11-19_02h34.00.585,Colour_Similarity_Experiment,2020.1.2,Win32,60,5fb5945709dec70f2d595766,,,,,,,,,,,,,,,,,,,,PF,,,,,,,,7,1.24684,,,,,,,,,,,,,,,,,,,,,,,,,,,,7,26,70,1,0,0,response1disk,4,2,10,1,0,0,rectangle,2,10,1,0,0,6,4,"[61,91,176,68,219,233,89,169,14,258,127,84,152,289,94,136,99,154,287,282]",2,10,1,0,0,0,22,21,21,43,1,,,,,,,,,,,,,,,,,,,,,
,,,,,,,,,,,,,,,,,,,,,,,,,,,,,,,,,,,,,,,,,,,5f514e2a5552dd37bc2060f3,5fb5d986fb12541d19833626,2020-11-19_02h34.00.585,Colour_Similarity_Experiment,2020.1.2,Win32,60,5fb5945709dec70f2d595766,,,,,,,,,,,,,,,,,,,,PF,,,,,,,,4,3.30062,,,,,,,,,,,,,,,,,,,,,,,,,,,,7,59,-77,1,0,0,response3disk,6,-3,-2,1,0,0,rectangle,-3,-2,1,0,0,6,7,"[61,91,176,68,219,233,89,169,14,258,127,84,152,289,94,136,99,154,287,282]",-3,-2,1,0,0,0,23,22,22,29,1,,,,,,,,,,,,,,,,,,,,,
,,,,,,,,,,,,,,,,,,,,,,,,,,,,,,,,,,,,,,,,,,,5f514e2a5552dd37bc2060f3,5fb5d986fb12541d19833626,2020-11-19_02h34.00.585,Colour_Similarity_Experiment,2020.1.2,Win32,60,5fb5945709dec70f2d595766,,,,,,,,,,,,,,,,,,,,PF,,,,,,,,0,1.27718,,,,,,,,,,,,,,,,,,,,,,,,,,,,7,-32,89,1,0,0,response7disk,7,5,-2,1,0,0,rectangle,5,-2,1,0,0,6,2,"[61,91,176,68,219,233,89,169,14,258,127,84,152,289,94,136,99,154,287,282]",5,-2,1,0,0,0,24,23,23,51,1,,,,,,,,,,,,,,,,,,,,,
,,,,,,,,,,,,,,,,,,,,,,,,,,,,,,,,,,,,,,,,,,,5f514e2a5552dd37bc2060f3,5fb5d986fb12541d19833626,2020-11-19_02h34.00.585,Colour_Similarity_Experiment,2020.1.2,Win32,60,5fb5945709dec70f2d595766,,,,,,,,,,,,,,,,,,,,FF,,,,,,,,7,1.20536,,,,,,,,,,,,,,,,,,,,,,,,,,,,1,27,73,1,0,0,response1disk,6,-4,-2,1,0,0,rectangle,-4,-2,1,0,0,6,6,"[61,91,176,68,219,233,89,169,14,258,127,84,152,289,94,136,99,154,287,282]",-4,-2,1,0,0,0,25,24,24,58,1,,,,,,,,,,,,,,,,,,,,,
,,,,,,,,,,,,,,,,,,,,,,,,,,,,,,,,,,,,,,,,,,,5f514e2a5552dd37bc2060f3,5fb5d986fb12541d19833626,2020-11-19_02h34.00.585,Colour_Similarity_Experiment,2020.1.2,Win32,60,5fb5945709dec70f2d595766,,,,,,,,,,,,,,,,,,,,FF,,,,,,,,7,1.25721,,,,,,,,,,,,,,,,,,,,,,,,,,,,7,29,72,1,0,0,response1disk,3,3,8,1,0,0,rectangle,3,8,1,0,0,6,7,"[61,91,176,68,219,233,89,169,14,258,127,84,152,289,94,136,99,154,287,282]",3,8,1,0,0,0,26,25,25,73,1,,,,,,,,,,,,,,,,,,,,,
,,,,,,,,,,,,,,,,,,,,,,,,,,,,,,,,,,,,,,,,,,,5f514e2a5552dd37bc2060f3,5fb5d986fb12541d19833626,2020-11-19_02h34.00.585,Colour_Similarity_Experiment,2020.1.2,Win32,60,5fb5945709dec70f2d595766,,,,,,,,,,,,,,,,,,,,PF,,,,,,,,7,1.23467,,,,,,,,,,,,,,,,,,,,,,,,,,,,8,27,61,1,0,0,response1disk,1,-3,-8,1,0,0,rectangle,-3,-8,1,0,0,6,2,"[61,91,176,68,219,233,89,169,14,258,127,84,152,289,94,136,99,154,287,282]",-3,-8,1,0,0,0,27,26,26,57,1,,,,,,,,,,,,,,,,,,,,,
,,,,,,,,,,,,,,,,,,,,,,,,,,,,,,,,,,,,,,,,,,,5f514e2a5552dd37bc2060f3,5fb5d986fb12541d19833626,2020-11-19_02h34.00.585,Colour_Similarity_Experiment,2020.1.2,Win32,60,5fb5945709dec70f2d595766,,,,,,,,,,,,,,,,,,,,FF,,,,,,,,7,1.218915,,,,,,,,,,,,,,,,,,,,,,,,,,,,1,25,60,1,0,0,response1disk,4,6,7,1,0,0,rectangle,6,7,1,0,0,6,1,"[61,91,176,68,219,233,89,169,14,258,127,84,152,289,94,136,99,154,287,282]",6,7,1,0,0,0,28,27,27,135,1,,,,,,,,,,,,,,,,,,,,,
,,,,,,,,,,,,,,,,,,,,,,,,,,,,,,,,,,,,,,,,,,,5f514e2a5552dd37bc2060f3,5fb5d986fb12541d19833626,2020-11-19_02h34.00.585,Colour_Similarity_Experiment,2020.1.2,Win32,60,5fb5945709dec70f2d595766,,,,,,,,,,,,,,,,,,,,FF,,,,,,,,0,1.54756,,,,,,,,,,,,,,,,,,,,,,,,,,,,6,-58,87,1,0,0,response7disk,6,3,-2,1,0,0,rectangle,3,-2,1,0,0,6,0,"[61,91,176,68,219,233,89,169,14,258,127,84,152,289,94,136,99,154,287,282]",3,-2,1,0,0,0,29,28,28,91,1,,,,,,,,,,,,,,,,,,,,,
,,,,,,,,,,,,,,,,,,,,,,,,,,,,,,,,,,,,,,,,,,,5f514e2a5552dd37bc2060f3,5fb5d986fb12541d19833626,2020-11-19_02h34.00.585,Colour_Similarity_Experiment,2020.1.2,Win32,60,5fb5945709dec70f2d595766,,,,,,,,,,,,,,,,,,,,FF,,,,,,,,4,2.68063,,,,,,,,,,,,,,,,,,,,,,,,,,,,4,33,-84,1,0,0,response3disk,5,-4,-4,1,0,0,rectangle,-4,-4,1,0,0,6,5,"[61,91,176,68,219,233,89,169,14,258,127,84,152,289,94,136,99,154,287,282]",-4,-4,1,0,0,0,30,29,29,116,1,,,,,,,,,,,,,,,,,,,,,
,,,,,,,,,,,,,,,,,,,,,,,,,,,,,,,,,,,,,,,,,,,5f514e2a5552dd37bc2060f3,5fb5d986fb12541d19833626,2020-11-19_02h34.00.585,Colour_Similarity_Experiment,2020.1.2,Win32,60,5fb5945709dec70f2d595766,,,,,,,,,,,,,,,,,,,,PF,,,,,,,,5,1.688625,,,,,,,,,,,,,,,,,,,,,,,,,,,,7,67,-29,1,0,0,response3disk,5,1,1,1,0,0,rectangle,1,1,1,0,0,6,5,"[61,91,176,68,219,233,89,169,14,258,127,84,152,289,94,136,99,154,287,282]",1,1,1,0,0,0,31,30,30,92,1,,,,,,,,,,,,,,,,,,,,,
,,,,,,,,,,,,,,,,,,,,,,,,,,,,,,,,,,,,,,,,,,,5f514e2a5552dd37bc2060f3,5fb5d986fb12541d19833626,2020-11-19_02h34.00.585,Colour_Similarity_Experiment,2020.1.2,Win32,60,5fb5945709dec70f2d595766,,,,,,,,,,,,,,,,,,,,FF,,,,,,,,7,1.160175,,,,,,,,,,,,,,,,,,,,,,,,,,,,5,31,68,1,0,0,response1disk,9,10,4,1,0,0,rectangle,10,4,1,0,0,6,3,"[61,91,176,68,219,233,89,169,14,258,127,84,152,289,94,136,99,154,287,282]",10,4,1,0,0,0,32,31,31,61,1,,,,,,,,,,,,,,,,,,,,,
,,,,,,,,,,,,,,,,,,,,,,,,,,,,,,,,,,,,,,,,,,,5f514e2a5552dd37bc2060f3,5fb5d986fb12541d19833626,2020-11-19_02h34.00.585,Colour_Similarity_Experiment,2020.1.2,Win32,60,5fb5945709dec70f2d595766,,,,,,,,,,,,,,,,,,,,PF,,,,,,,,4,2.50161,,,,,,,,,,,,,,,,,,,,,,,,,,,,6,41,-103,1,0,0,response3disk,7,-2,4,1,0,0,rectangle,-2,4,1,0,0,6,0,"[61,91,176,68,219,233,89,169,14,258,127,84,152,289,94,136,99,154,287,282]",-2,4,1,0,0,0,33,32,32,50,1,,,,,,,,,,,,,,,,,,,,,
,,,,,,,,,,,,,,,,,,,,,,,,,,,,,,,,,,,,,,,,,,,5f514e2a5552dd37bc2060f3,5fb5d986fb12541d19833626,2020-11-19_02h34.00.585,Colour_Similarity_Experiment,2020.1.2,Win32,60,5fb5945709dec70f2d595766,,,,,,,,,,,,,,,,,,,,PF,,,,,,,,7,1.15738,,,,,,,,,,,,,,,,,,,,,,,,,,,,7,37,100,1,0,0,response1disk,2,5,6,1,0,0,rectangle,5,6,1,0,0,6,5,"[61,91,176,68,219,233,89,169,14,258,127,84,152,289,94,136,99,154,287,282]",5,6,1,0,0,0,34,33,33,32,1,,,,,,,,,,,,,,,,,,,,,
,,,,,,,,,,,,,,,,,,,,,,,,,,,,,,,,,,,,,,,,,,,5f514e2a5552dd37bc2060f3,5fb5d986fb12541d19833626,2020-11-19_02h34.00.585,Colour_Similarity_Experiment,2020.1.2,Win32,60,5fb5945709dec70f2d595766,,,,,,,,,,,,,,,,,,,,PF,,,,,,,,7,1.20874,,,,,,,,,,,,,,,,,,,,,,,,,,,,2,25,54,1,0,0,response1disk,6,-2,9,1,0,0,rectangle,-2,9,1,0,0,6,5,"[61,91,176,68,219,233,89,169,14,258,127,84,152,289,94,136,99,154,287,282]",-2,9,1,0,0,0,35,34,34,113,1,,,,,,,,,,,,,,,,,,,,,
,,,,,,,,,,,,,,,,,,,,,,,,,,,,,,,,,,,,,,,,,,,5f514e2a5552dd37bc2060f3,5fb5d986fb12541d19833626,2020-11-19_02h34.00.585,Colour_Similarity_Experiment,2020.1.2,Win32,60,5fb5945709dec70f2d595766,,,,,,,,,,,,,,,,,,,,PF,,,,,,,,0,0.91661,,,,,,,,,,,,,,,,,,,,,,,,,,,,2,-40,80,1,0,0,response7disk,2,-6,4,1,0,0,rectangle,-6,4,1,0,0,6,5,"[61,91,176,68,219,233,89,169,14,258,127,84,152,289,94,136,99,154,287,282]",-6,4,1,0,0,0,36,35,35,14,1,,,,,,,,,,,,,,,,,,,,,
,,,,,,,,,,,,,,,,,,,,,,,,,,,,,,,,,,,,,,,,,,,5f514e2a5552dd37bc2060f3,5fb5d986fb12541d19833626,2020-11-19_02h34.00.585,Colour_Similarity_Experiment,2020.1.2,Win32,60,5fb5945709dec70f2d595766,,,,,,,,,,,,,,,,,,,,PF,,,,,,,,5,2.01721,,,,,,,,,,,,,,,,,,,,,,,,,,,,5,89,-45,1,0,0,response3disk,6,-7,-5,1,0,0,rectangle,-7,-5,1,0,0,6,5,"[61,91,176,68,219,233,89,169,14,258,127,84,152,289,94,136,99,154,287,282]",-7,-5,1,0,0,0,37,36,36,103,1,,,,,,,,,,,,,,,,,,,,,
,,,,,,,,,,,,,,,,,,,,,,,,,,,,,,,,,,,,,,,,,,,5f514e2a5552dd37bc2060f3,5fb5d986fb12541d19833626,2020-11-19_02h34.00.585,Colour_Similarity_Experiment,2020.1.2,Win32,60,5fb5945709dec70f2d595766,,,,,,,,,,,,,,,,,,,,FF,,,,,,,,7,1.083035,,,,,,,,,,,,,,,,,,,,,,,,,,,,1,33,81,1,0,0,response1disk,8,9,5,1,0,0,rectangle,9,5,1,0,0,6,2,"[61,91,176,68,219,233,89,169,14,258,127,84,152,289,94,136,99,154,287,282]",9,5,1,0,0,0,38,37,37,27,1,,,,,,,,,,,,,,,,,,,,,
,,,,,,,,,,,,,,,,,,,,,,,,,,,,,,,,,,,,,,,,,,,5f514e2a5552dd37bc2060f3,5fb5d986fb12541d19833626,2020-11-19_02h34.00.585,Colour_Similarity_Experiment,2020.1.2,Win32,60,5fb5945709dec70f2d595766,,,,,,,,,,,,,,,,,,,,FF,,,,,,,,7,1.426815,,,,,,,,,,,,,,,,,,,,,,,,,,,,6,46,86,1,0,0,response1disk,9,2,-1,1,0,0,rectangle,2,-1,1,0,0,6,1,"[61,91,176,68,219,233,89,169,14,258,127,84,152,289,94,136,99,154,287,282]",2,-1,1,0,0,0,39,38,38,160,1,,,,,,,,,,,,,,,,,,,,,
,,,,,,,,,,,,,,,,,,,,,,,,,,,,,,,,,,,,,,,,,,,5f514e2a5552dd37bc2060f3,5fb5d986fb12541d19833626,2020-11-19_02h34.00.585,Colour_Similarity_Experiment,2020.1.2,Win32,60,5fb5945709dec70f2d595766,,,,,,,,,,,,,,,,,,,,PF,,,,,,,,7,1.20329,,,,,,,,,,,,,,,,,,,,,,,,,,,,6,16,50,1,0,0,response1disk,8,-4,8,1,0,0,rectangle,-4,8,1,0,0,6,4,"[61,91,176,68,219,233,89,169,14,258,127,84,152,289,94,136,99,154,287,282]",-4,8,1,0,0,0,40,39,39,64,1,,,,,,,,,,,,,,,,,,,,,
,,,,,,,,,,,,,,,,,,,,,,,,,,,,,,,,,,,,,,,,,,,5f514e2a5552dd37bc2060f3,5fb5d986fb12541d19833626,2020-11-19_02h34.00.585,Colour_Similarity_Experiment,2020.1.2,Win32,60,5fb5945709dec70f2d595766,,,,,,,,,,,,,,,,,,,,PF,,,,,,,,7,1.169705,,,,,,,,,,,,,,,,,,,,,,,,,,,,8,39,68,1,0,0,response1disk,4,3,8,1,0,0,rectangle,3,8,1,0,0,6,6,"[61,91,176,68,219,233,89,169,14,258,127,84,152,289,94,136,99,154,287,282]",3,8,1,0,0,0,41,40,40,78,1,,,,,,,,,,,,,,,,,,,,,
,,,,,,,,,,,,,,,,,,,,,,,,,,,,,,,,,,,,,,,,,,,5f514e2a5552dd37bc2060f3,5fb5d986fb12541d19833626,2020-11-19_02h34.00.585,Colour_Similarity_Experiment,2020.1.2,Win32,60,5fb5945709dec70f2d595766,,,,,,,,,,,,,,,,,,,,PF,,,,,,,,6,2.24733,,,,,,,,,,,,,,,,,,,,,,,,,,,,5,76,38,1,0,0,response1disk,7,1,3,1,0,0,rectangle,1,3,1,0,0,6,7,"[61,91,176,68,219,233,89,169,14,258,127,84,152,289,94,136,99,154,287,282]",1,3,1,0,0,0,42,41,41,146,1,,,,,,,,,,,,,,,,,,,,,
,,,,,,,,,,,,,,,,,,,,,,,,,,,,,,,,,,,,,,,,,,,5f514e2a5552dd37bc2060f3,5fb5d986fb12541d19833626,2020-11-19_02h34.00.585,Colour_Similarity_Experiment,2020.1.2,Win32,60,5fb5945709dec70f2d595766,,,,,,,,,,,,,,,,,,,,PF,,,,,,,,7,1.213175,,,,,,,,,,,,,,,,,,,,,,,,,,,,3,26,55,1,0,0,response1disk,6,-1,13,1,0,0,rectangle,-1,13,1,0,0,6,0,"[61,91,176,68,219,233,89,169,14,258,127,84,152,289,94,136,99,154,287,282]",-1,13,1,0,0,0,43,42,42,47,1,,,,,,,,,,,,,,,,,,,,,
,,,,,,,,,,,,,,,,,,,,,,,,,,,,,,,,,,,,,,,,,,,5f514e2a5552dd37bc2060f3,5fb5d986fb12541d19833626,2020-11-19_02h34.00.585,Colour_Similarity_Experiment,2020.1.2,Win32,60,5fb5945709dec70f2d595766,,,,,,,,,,,,,,,,,,,,FF,,,,,,,,7,1.097415,,,,,,,,,,,,,,,,,,,,,,,,,,,,4,23,52,1,0,0,response1disk,7,4,12,1,0,0,rectangle,4,12,1,0,0,6,2,"[61,91,176,68,219,233,89,169,14,258,127,84,152,289,94,136,99,154,287,282]",4,12,1,0,0,0,44,43,43,87,1,,,,,,,,,,,,,,,,,,,,,
,,,,,,,,,,,,,,,,,,,,,,,,,,,,,,,,,,,,,,,,,,,5f514e2a5552dd37bc2060f3,5fb5d986fb12541d19833626,2020-11-19_02h34.00.585,Colour_Similarity_Experiment,2020.1.2,Win32,60,5fb5945709dec70f2d595766,,,,,,,,,,,,,,,,,,,,FF,,,,,,,,7,1.080595,,,,,,,,,,,,,,,,,,,,,,,,,,,,2,16,37,1,0,0,response1disk,8,1,0,1,0,0,rectangle,1,0,1,0,0,6,5,"[61,91,176,68,219,233,89,169,14,258,127,84,152,289,94,136,99,154,287,282]",1,0,1,0,0,0,45,44,44,62,1,,,,,,,,,,,,,,,,,,,,,
,,,,,,,,,,,,,,,,,,,,,,,,,,,,,,,,,,,,,,,,,,,5f514e2a5552dd37bc2060f3,5fb5d986fb12541d19833626,2020-11-19_02h34.00.585,Colour_Similarity_Experiment,2020.1.2,Win32,60,5fb5945709dec70f2d595766,,,,,,,,,,,,,,,,,,,,FF,,,,,,,,7,1.11001,,,,,,,,,,,,,,,,,,,,,,,,,,,,8,25,69,1,0,0,response1disk,1,4,12,1,0,0,rectangle,4,12,1,0,0,6,7,"[61,91,176,68,219,233,89,169,14,258,127,84,152,289,94,136,99,154,287,282]",4,12,1,0,0,0,46,45,45,20,1,,,,,,,,,,,,,,,,,,,,,
,,,,,,,,,,,,,,,,,,,,,,,,,,,,,,,,,,,,,,,,,,,5f514e2a5552dd37bc2060f3,5fb5d986fb12541d19833626,2020-11-19_02h34.00.585,Colour_Similarity_Experiment,2020.1.2,Win32,60,5fb5945709dec70f2d595766,,,,,,,,,,,,,,,,,,,,FF,,,,,,,,7,1.19976,,,,,,,,,,,,,,,,,,,,,,,,,,,,7,26,60,1,0,0,response1disk,8,-2,7,1,0,0,rectangle,-2,7,1,0,0,6,7,"[61,91,176,68,219,233,89,169,14,258,127,84,152,289,94,136,99,154,287,282]",-2,7,1,0,0,0,47,46,46,97,1,,,,,,,,,,,,,,,,,,,,,
,,,,,,,,,,,,,,,,,,,,,,,,,,,,,,,,,,,,,,,,,,,5f514e2a5552dd37bc2060f3,5fb5d986fb12541d19833626,2020-11-19_02h34.00.585,Colour_Similarity_Experiment,2020.1.2,Win32,60,5fb5945709dec70f2d595766,,,,,,,,,,,,,,,,,,,,PF,,,,,,,,7,1.166865,,,,,,,,,,,,,,,,,,,,,,,,,,,,5,25,69,1,0,0,response1disk,8,7,4,1,0,0,rectangle,7,4,1,0,0,6,7,"[61,91,176,68,219,233,89,169,14,258,127,84,152,289,94,136,99,154,287,282]",7,4,1,0,0,0,48,47,47,149,1,,,,,,,,,,,,,,,,,,,,,
,,,,,,,,,,,,,,,,,,,,,,,,,,,,,,,,,,,,,,,,,,,5f514e2a5552dd37bc2060f3,5fb5d986fb12541d19833626,2020-11-19_02h34.00.585,Colour_Similarity_Experiment,2020.1.2,Win32,60,5fb5945709dec70f2d595766,,,,,,,,,,,,,,,,,,,,FF,,,,,,,,6,1.690795,,,,,,,,,,,,,,,,,,,,,,,,,,,,5,69,34,1,0,0,response1disk,7,1,1,1,0,0,rectangle,1,1,1,0,0,6,5,"[61,91,176,68,219,233,89,169,14,258,127,84,152,289,94,136,99,154,287,282]",1,1,1,0,0,0,49,48,48,7,1,,,,,,,,,,,,,,,,,,,,,
,,,,,,,,,,,,,,,,,,,,,,,,,,,,,,,,,,,,,,,,,,,5f514e2a5552dd37bc2060f3,5fb5d986fb12541d19833626,2020-11-19_02h34.00.585,Colour_Similarity_Experiment,2020.1.2,Win32,60,5fb5945709dec70f2d595766,,,,,,,,,,,,,,,,,,,,PF,,,,,,,,7,1.226595,,,,,,,,,,,,,,,,,,,,,,,,,,,,5,24,65,1,0,0,response1disk,9,-1,13,1,0,0,rectangle,-1,13,1,0,0,6,4,"[61,91,176,68,219,233,89,169,14,258,127,84,152,289,94,136,99,154,287,282]",-1,13,1,0,0,0,50,49,49,136,1,,,,,,,,,,,,,,,,,,,,,
,,,,,,,,,,,,,,,,,,,,,,,,,,,,,,,,,,,,,,,,,,,5f514e2a5552dd37bc2060f3,5fb5d986fb12541d19833626,2020-11-19_02h34.00.585,Colour_Similarity_Experiment,2020.1.2,Win32,60,5fb5945709dec70f2d595766,,,,,,,,,,,,,,,,,,,,PF,,,,,,,,6,1.42435,,,,,,,,,,,,,,,,,,,,,,,,,,,,4,59,31,1,0,0,response1disk,7,8,-2,1,0,0,rectangle,8,-2,1,0,0,6,1,"[61,91,176,68,219,233,89,169,14,258,127,84,152,289,94,136,99,154,287,282]",8,-2,1,0,0,0,51,50,50,38,1,,,,,,,,,,,,,,,,,,,,,
,,,,,,,,,,,,,,,,,,,,,,,,,,,,,,,,,,,,,,,,,,,5f514e2a5552dd37bc2060f3,5fb5d986fb12541d19833626,2020-11-19_02h34.00.585,Colour_Similarity_Experiment,2020.1.2,Win32,60,5fb5945709dec70f2d595766,,,,,,,,,,,,,,,,,,,,FF,,,,,,,,7,1.206935,,,,,,,,,,,,,,,,,,,,,,,,,,,,9,22,68,1,0,0,response1disk,5,3,10,1,0,0,rectangle,3,10,1,0,0,6,7,"[61,91,176,68,219,233,89,169,14,258,127,84,152,289,94,136,99,154,287,282]",3,10,1,0,0,0,52,51,51,128,1,,,,,,,,,,,,,,,,,,,,,
,,,,,,,,,,,,,,,,,,,,,,,,,,,,,,,,,,,,,,,,,,,5f514e2a5552dd37bc2060f3,5fb5d986fb12541d19833626,2020-11-19_02h34.00.585,Colour_Similarity_Experiment,2020.1.2,Win32,60,5fb5945709dec70f2d595766,,,,,,,,,,,,,,,,,,,,PF,,,,,,,,4,2.32999,,,,,,,,,,,,,,,,,,,,,,,,,,,,5,37,-96,1,0,0,response3disk,3,-4,8,1,0,0,rectangle,-4,8,1,0,0,6,7,"[61,91,176,68,219,233,89,169,14,258,127,84,152,289,94,136,99,154,287,282]",-4,8,1,0,0,0,53,52,52,109,1,,,,,,,,,,,,,,,,,,,,,
,,,,,,,,,,,,,,,,,,,,,,,,,,,,,,,,,,,,,,,,,,,5f514e2a5552dd37bc2060f3,5fb5d986fb12541d19833626,2020-11-19_02h34.00.585,Colour_Similarity_Experiment,2020.1.2,Win32,60,5fb5945709dec70f2d595766,,,,,,,,,,,,,,,,,,,,PF,,,,,,,,5,1.94936,,,,,,,,,,,,,,,,,,,,,,,,,,,,4,98,-34,1,0,0,response3disk,2,-9,6,1,0,0,rectangle,-9,6,1,0,0,6,5,"[61,91,176,68,219,233,89,169,14,258,127,84,152,289,94,136,99,154,287,282]",-9,6,1,0,0,0,54,53,53,108,1,,,,,,,,,,,,,,,,,,,,,
,,,,,,,,,,,,,,,,,,,,,,,,,,,,,,,,,,,,,,,,,,,5f514e2a5552dd37bc2060f3,5fb5d986fb12541d19833626,2020-11-19_02h34.00.585,Colour_Similarity_Experiment,2020.1.2,Win32,60,5fb5945709dec70f2d595766,,,,,,,,,,,,,,,,,,,,FF,,,,,,,,0,1.160905,,,,,,,,,,,,,,,,,,,,,,,,,,,,4,-23,101,1,0,0,response7disk,4,4,-3,1,0,0,rectangle,4,-3,1,0,0,6,3,"[61,91,176,68,219,233,89,169,14,258,127,84,152,289,94,136,99,154,287,282]",4,-3,1,0,0,0,55,54,54,84,1,,,,,,,,,,,,,,,,,,,,,
,,,,,,,,,,,,,,,,,,,,,,,,,,,,,,,,,,,,,,,,,,,5f514e2a5552dd37bc2060f3,5fb5d986fb12541d19833626,2020-11-19_02h34.00.585,Colour_Similarity_Experiment,2020.1.2,Win32,60,5fb5945709dec70f2d595766,,,,,,,,,,,,,,,,,,,,FF,,,,,,,,7,0.970765,,,,,,,,,,,,,,,,,,,,,,,,,,,,9,26,70,1,0,0,response1disk,7,-11,4,1,0,0,rectangle,-11,4,1,0,0,6,7,"[61,91,176,68,219,233,89,169,14,258,127,84,152,289,94,136,99,154,287,282]",-11,4,1,0,0,0,56,55,55,100,1,,,,,,,,,,,,,,,,,,,,,
,,,,,,,,,,,,,,,,,,,,,,,,,,,,,,,,,,,,,,,,,,,5f514e2a5552dd37bc2060f3,5fb5d986fb12541d19833626,2020-11-19_02h34.00.585,Colour_Similarity_Experiment,2020.1.2,Win32,60,5fb5945709dec70f2d595766,,,,,,,,,,,,,,,,,,,,PF,,,,,,,,7,1.220545,,,,,,,,,,,,,,,,,,,,,,,,,,,,6,38,76,1,0,0,response1disk,2,12,-2,1,0,0,rectangle,12,-2,1,0,0,6,4,"[61,91,176,68,219,233,89,169,14,258,127,84,152,289,94,136,99,154,287,282]",12,-2,1,0,0,0,57,56,56,130,1,,,,,,,,,,,,,,,,,,,,,
,,,,,,,,,,,,,,,,,,,,,,,,,,,,,,,,,,,,,,,,,,,5f514e2a5552dd37bc2060f3,5fb5d986fb12541d19833626,2020-11-19_02h34.00.585,Colour_Similarity_Experiment,2020.1.2,Win32,60,5fb5945709dec70f2d595766,,,,,,,,,,,,,,,,,,,,FF,,,,,,,,0,0.884855,,,,,,,,,,,,,,,,,,,,,,,,,,,,3,-33,77,1,0,0,response7disk,3,-4,7,1,0,0,rectangle,-4,7,1,0,0,6,2,"[61,91,176,68,219,233,89,169,14,258,127,84,152,289,94,136,99,154,287,282]",-4,7,1,0,0,0,58,57,57,68,1,,,,,,,,,,,,,,,,,,,,,
,,,,,,,,,,,,,,,,,,,,,,,,,,,,,,,,,,,,,,,,,,,5f514e2a5552dd37bc2060f3,5fb5d986fb12541d19833626,2020-11-19_02h34.00.585,Colour_Similarity_Experiment,2020.1.2,Win32,60,5fb5945709dec70f2d595766,,,,,,,,,,,,,,,,,,,,PF,,,,,,,,4,2.08207,,,,,,,,,,,,,,,,,,,,,,,,,,,,3,35,-65,1,0,0,response3disk,5,1,3,1,0,0,rectangle,1,3,1,0,0,6,1,"[61,91,176,68,219,233,89,169,14,258,127,84,152,289,94,136,99,154,287,282]",1,3,1,0,0,0,59,58,58,66,1,,,,,,,,,,,,,,,,,,,,,
,,,,,,,,,,,,,,,,,,,,,,,,,,,,,,,,,,,,,,,,,,,5f514e2a5552dd37bc2060f3,5fb5d986fb12541d19833626,2020-11-19_02h34.00.585,Colour_Similarity_Experiment,2020.1.2,Win32,60,5fb5945709dec70f2d595766,,,,,,,,,,,,,,,,,,,,FF,,,,,,,,7,1.197845,,,,,,,,,,,,,,,,,,,,,,,,,,,,8,26,65,1,0,0,response1disk,4,2,0,1,0,0,rectangle,2,0,1,0,0,6,4,"[61,91,176,68,219,233,89,169,14,258,127,84,152,289,94,136,99,154,287,282]",2,0,1,0,0,0,60,59,59,88,1,,,,,,,,,,,,,,,,,,,,,
,,,,,,,,,,,,,,,,,,,,,,,,,,,,,,,,,,,,,,,,,,,5f514e2a5552dd37bc2060f3,5fb5d986fb12541d19833626,2020-11-19_02h34.00.585,Colour_Similarity_Experiment,2020.1.2,Win32,60,5fb5945709dec70f2d595766,,,,,,,,,,,,,,,,,,,,PF,,,,,,,,5,1.80554,,,,,,,,,,,,,,,,,,,,,,,,,,,,9,79,-49,1,0,0,response3disk,1,-2,6,1,0,0,rectangle,32,92,1,0,0,7,7,"[61,91,176,68,219,233,89,169,14,258,127,84,152,289,94,136,99,154,287,282]",4,2,1,0,0,0,61,60,60,74,1,response1disk_3,rectangle,,,,,,,,,,,,,,,,,,,
,,,,,,,,,,,,,,,,,,,,,,,,,,,,,,,,,,,,,,,,,,,5f514e2a5552dd37bc2060f3,5fb5d986fb12541d19833626,2020-11-19_02h34.00.585,Colour_Similarity_Experiment,2020.1.2,Win32,60,5fb5945709dec70f2d595766,,,,,,,,,,,,,,,,,,,,FF,,,,,,,,5,1.47551,,,,,,,,,,,,,,,,,,,,,,,,,,,,3,66,-37,1,0,0,response3disk,5,-2,-7,1,0,0,rectangle,-2,-7,1,0,0,7,4,"[61,91,176,68,219,233,89,169,14,258,127,84,152,289,94,136,99,154,287,282]",-2,-7,1,0,0,0,62,61,61,101,1,,,,,,,,,,,,,,,,,,,,,
,,,,,,,,,,,,,,,,,,,,,,,,,,,,,,,,,,,,,,,,,,,5f514e2a5552dd37bc2060f3,5fb5d986fb12541d19833626,2020-11-19_02h34.00.585,Colour_Similarity_Experiment,2020.1.2,Win32,60,5fb5945709dec70f2d595766,,,,,,,,,,,,,,,,,,,,FF,,,,,,,,5,1.57732,,,,,,,,,,,,,,,,,,,,,,,,,,,,3,81,-55,1,0,0,response3disk,6,-8,-1,1,0,0,rectangle,-8,-1,1,0,0,7,5,"[61,91,176,68,219,233,89,169,14,258,127,84,152,289,94,136,99,154,287,282]",-8,-1,1,0,0,0,63,62,62,95,1,,,,,,,,,,,,,,,,,,,,,
,,,,,,,,,,,,,,,,,,,,,,,,,,,,,,,,,,,,,,,,,,,5f514e2a5552dd37bc2060f3,5fb5d986fb12541d19833626,2020-11-19_02h34.00.585,Colour_Similarity_Experiment,2020.1.2,Win32,60,5fb5945709dec70f2d595766,,,,,,,,,,,,,,,,,,,,FF,,,,,,,,5,1.2128,,,,,,,,,,,,,,,,,,,,,,,,,,,,6,52,-21,1,0,0,response3disk,5,19,-10,1,0,0,rectangle,19,-10,1,0,0,7,6,"[61,91,176,68,219,233,89,169,14,258,127,84,152,289,94,136,99,154,287,282]",19,-10,1,0,0,0,64,63,63,126,1,,,,,,,,,,,,,,,,,,,,,
,,,,,,,,,,,,,,,,,,,,,,,,,,,,,,,,,,,,,,,,,,,5f514e2a5552dd37bc2060f3,5fb5d986fb12541d19833626,2020-11-19_02h34.00.585,Colour_Similarity_Experiment,2020.1.2,Win32,60,5fb5945709dec70f2d595766,,,,,,,,,,,,,,,,,,,,PF,,,,,,,,7,0.911575,,,,,,,,,,,,,,,,,,,,,,,,,,,,1,17,50,1,0,0,response1disk,7,-2,-6,1,0,0,rectangle,-2,-6,1,0,0,7,7,"[61,91,176,68,219,233,89,169,14,258,127,84,152,289,94,136,99,154,287,282]",-2,-6,1,0,0,0,65,64,64,150,1,,,,,,,,,,,,,,,,,,,,,
,,,,,,,,,,,,,,,,,,,,,,,,,,,,,,,,,,,,,,,,,,,5f514e2a5552dd37bc2060f3,5fb5d986fb12541d19833626,2020-11-19_02h34.00.585,Colour_Similarity_Experiment,2020.1.2,Win32,60,5fb5945709dec70f2d595766,,,,,,,,,,,,,,,,,,,,PF,,,,,,,,7,1.2532,,,,,,,,,,,,,,,,,,,,,,,,,,,,9,47,112,1,0,0,response1disk,6,-4,4,1,0,0,rectangle,-4,4,1,0,0,7,4,"[61,91,176,68,219,233,89,169,14,258,127,84,152,289,94,136,99,154,287,282]",-4,4,1,0,0,0,66,65,65,148,1,,,,,,,,,,,,,,,,,,,,,
,,,,,,,,,,,,,,,,,,,,,,,,,,,,,,,,,,,,,,,,,,,5f514e2a5552dd37bc2060f3,5fb5d986fb12541d19833626,2020-11-19_02h34.00.585,Colour_Similarity_Experiment,2020.1.2,Win32,60,5fb5945709dec70f2d595766,,,,,,,,,,,,,,,,,,,,PF,,,,,,,,7,0.90458,,,,,,,,,,,,,,,,,,,,,,,,,,,,3,23,60,1,0,0,response1disk,1,-3,11,1,0,0,rectangle,-3,11,1,0,0,7,0,"[61,91,176,68,219,233,89,169,14,258,127,84,152,289,94,136,99,154,287,282]",-3,11,1,0,0,0,67,66,66,96,1,,,,,,,,,,,,,,,,,,,,,
,,,,,,,,,,,,,,,,,,,,,,,,,,,,,,,,,,,,,,,,,,,5f514e2a5552dd37bc2060f3,5fb5d986fb12541d19833626,2020-11-19_02h34.00.585,Colour_Similarity_Experiment,2020.1.2,Win32,60,5fb5945709dec70f2d595766,,,,,,,,,,,,,,,,,,,,FF,,,,,,,,0,0.88241,,,,,,,,,,,,,,,,,,,,,,,,,,,,7,-30,52,1,0,0,response7disk,7,3,-6,1,0,0,rectangle,27,77,1,0,0,7,7,"[61,91,176,68,219,233,89,169,14,258,127,84,152,289,94,136,99,154,287,282]",-3,-4,1,0,0,0,68,67,67,34,1,response1disk_3,rectangle,,,,,,,,,,,,,,,,,,,
,,,,,,,,,,,,,,,,,,,,,,,,,,,,,,,,,,,,,,,,,,,5f514e2a5552dd37bc2060f3,5fb5d986fb12541d19833626,2020-11-19_02h34.00.585,Colour_Similarity_Experiment,2020.1.2,Win32,60,5fb5945709dec70f2d595766,,,,,,,,,,,,,,,,,,,,FF,,,,,,,,7,0.913035,,,,,,,,,,,,,,,,,,,,,,,,,,,,9,26,47,1,0,0,response1disk,6,10,11,1,0,0,rectangle,10,11,1,0,0,7,0,"[61,91,176,68,219,233,89,169,14,258,127,84,152,289,94,136,99,154,287,282]",10,11,1,0,0,0,69,68,68,117,1,,,,,,,,,,,,,,,,,,,,,
,,,,,,,,,,,,,,,,,,,,,,,,,,,,,,,,,,,,,,,,,,,5f514e2a5552dd37bc2060f3,5fb5d986fb12541d19833626,2020-11-19_02h34.00.585,Colour_Similarity_Experiment,2020.1.2,Win32,60,5fb5945709dec70f2d595766,,,,,,,,,,,,,,,,,,,,PF,,,,,,,,7,1.14165,,,,,,,,,,,,,,,,,,,,,,,,,,,,8,23,50,1,0,0,response1disk,2,-2,8,1,0,0,rectangle,-2,8,1,0,0,7,3,"[61,91,176,68,219,233,89,169,14,258,127,84,152,289,94,136,99,154,287,282]",-2,8,1,0,0,0,70,69,69,83,1,,,,,,,,,,,,,,,,,,,,,
,,,,,,,,,,,,,,,,,,,,,,,,,,,,,,,,,,,,,,,,,,,5f514e2a5552dd37bc2060f3,5fb5d986fb12541d19833626,2020-11-19_02h34.00.585,Colour_Similarity_Experiment,2020.1.2,Win32,60,5fb5945709dec70f2d595766,,,,,,,,,,,,,,,,,,,,PF,,,,,,,,7,1.10415,,,,,,,,,,,,,,,,,,,,,,,,,,,,4,22,61,1,0,0,response1disk,6,-16,10,1,0,0,rectangle,-16,10,1,0,0,7,2,"[61,91,176,68,219,233,89,169,14,258,127,84,152,289,94,136,99,154,287,282]",-16,10,1,0,0,0,71,70,70,120,1,,,,,,,,,,,,,,,,,,,,,
,,,,,,,,,,,,,,,,,,,,,,,,,,,,,,,,,,,,,,,,,,,5f514e2a5552dd37bc2060f3,5fb5d986fb12541d19833626,2020-11-19_02h34.00.585,Colour_Similarity_Experiment,2020.1.2,Win32,60,5fb5945709dec70f2d595766,,,,,,,,,,,,,,,,,,,,PF,,,,,,,,7,1.084025,,,,,,,,,,,,,,,,,,,,,,,,,,,,9,55,61,1,0,0,response1disk,3,8,1,1,0,0,rectangle,8,1,1,0,0,7,2,"[61,91,176,68,219,233,89,169,14,258,127,84,152,289,94,136,99,154,287,282]",8,1,1,0,0,0,72,71,71,119,1,,,,,,,,,,,,,,,,,,,,,
,,,,,,,,,,,,,,,,,,,,,,,,,,,,,,,,,,,,,,,,,,,5f514e2a5552dd37bc2060f3,5fb5d986fb12541d19833626,2020-11-19_02h34.00.585,Colour_Similarity_Experiment,2020.1.2,Win32,60,5fb5945709dec70f2d595766,,,,,,,,,,,,,,,,,,,,FF,,,,,,,,7,1.38697,,,,,,,,,,,,,,,,,,,,,,,,,,,,2,35,60,1,0,0,response1disk,4,13,-7,1,0,0,rectangle,13,-7,1,0,0,7,0,"[61,91,176,68,219,233,89,169,14,258,127,84,152,289,94,136,99,154,287,282]",13,-7,1,0,0,0,73,72,72,145,1,,,,,,,,,,,,,,,,,,,,,
,,,,,,,,,,,,,,,,,,,,,,,,,,,,,,,,,,,,,,,,,,,5f514e2a5552dd37bc2060f3,5fb5d986fb12541d19833626,2020-11-19_02h34.00.585,Colour_Similarity_Experiment,2020.1.2,Win32,60,5fb5945709dec70f2d595766,,,,,,,,,,,,,,,,,,,,FF,,,,,,,,7,1.12709,,,,,,,,,,,,,,,,,,,,,,,,,,,,9,20,50,1,0,0,response1disk,2,7,4,1,0,0,rectangle,7,4,1,0,0,7,0,"[61,91,176,68,219,233,89,169,14,258,127,84,152,289,94,136,99,154,287,282]",7,4,1,0,0,0,74,73,73,11,1,,,,,,,,,,,,,,,,,,,,,
,,,,,,,,,,,,,,,,,,,,,,,,,,,,,,,,,,,,,,,,,,,5f514e2a5552dd37bc2060f3,5fb5d986fb12541d19833626,2020-11-19_02h34.00.585,Colour_Similarity_Experiment,2020.1.2,Win32,60,5fb5945709dec70f2d595766,,,,,,,,,,,,,,,,,,,,FF,,,,,,,,4,2.631465,,,,,,,,,,,,,,,,,,,,,,,,,,,,2,44,-80,1,0,0,response3disk,3,7,-5,1,0,0,rectangle,7,-5,1,0,0,7,6,"[61,91,176,68,219,233,89,169,14,258,127,84,152,289,94,136,99,154,287,282]",7,-5,1,0,0,0,75,74,74,104,1,,,,,,,,,,,,,,,,,,,,,
,,,,,,,,,,,,,,,,,,,,,,,,,,,,,,,,,,,,,,,,,,,5f514e2a5552dd37bc2060f3,5fb5d986fb12541d19833626,2020-11-19_02h34.00.585,Colour_Similarity_Experiment,2020.1.2,Win32,60,5fb5945709dec70f2d595766,,,,,,,,,,,,,,,,,,,,PF,,,,,,,,0,1.694175,,,,,,,,,,,,,,,,,,,,,,,,,,,,4,-28,60,1,0,0,response7disk,3,-5,2,1,0,0,rectangle,-5,2,1,0,0,7,0,"[61,91,176,68,219,233,89,169,14,258,127,84,152,289,94,136,99,154,287,282]",-5,2,1,0,0,0,76,75,75,89,1,,,,,,,,,,,,,,,,,,,,,
,,,,,,,,,,,,,,,,,,,,,,,,,,,,,,,,,,,,,,,,,,,5f514e2a5552dd37bc2060f3,5fb5d986fb12541d19833626,2020-11-19_02h34.00.585,Colour_Similarity_Experiment,2020.1.2,Win32,60,5fb5945709dec70f2d595766,,,,,,,,,,,,,,,,,,,,FF,,,,,,,,7,1.164265,,,,,,,,,,,,,,,,,,,,,,,,,,,,2,36,64,1,0,0,response1disk,1,2,4,1,0,0,rectangle,2,4,1,0,0,7,5,"[61,91,176,68,219,233,89,169,14,258,127,84,152,289,94,136,99,154,287,282]",2,4,1,0,0,0,77,76,76,85,1,,,,,,,,,,,,,,,,,,,,,
,,,,,,,,,,,,,,,,,,,,,,,,,,,,,,,,,,,,,,,,,,,5f514e2a5552dd37bc2060f3,5fb5d986fb12541d19833626,2020-11-19_02h34.00.585,Colour_Similarity_Experiment,2020.1.2,Win32,60,5fb5945709dec70f2d595766,,,,,,,,,,,,,,,,,,,,PF,,,,,,,,5,1.722235,,,,,,,,,,,,,,,,,,,,,,,,,,,,3,70,-24,1,0,0,response3disk,2,1,1,1,0,0,rectangle,1,1,1,0,0,7,7,"[61,91,176,68,219,233,89,169,14,258,127,84,152,289,94,136,99,154,287,282]",1,1,1,0,0,0,78,77,77,36,1,,,,,,,,,,,,,,,,,,,,,
,,,,,,,,,,,,,,,,,,,,,,,,,,,,,,,,,,,,,,,,,,,5f514e2a5552dd37bc2060f3,5fb5d986fb12541d19833626,2020-11-19_02h34.00.585,Colour_Similarity_Experiment,2020.1.2,Win32,60,5fb5945709dec70f2d595766,,,,,,,,,,,,,,,,,,,,FF,,,,,,,,5,1.88233,,,,,,,,,,,,,,,,,,,,,,,,,,,,3,66,-38,1,0,0,response3disk,4,1,-5,1,0,0,rectangle,1,-5,1,0,0,7,4,"[61,91,176,68,219,233,89,169,14,258,127,84,152,289,94,136,99,154,287,282]",1,-5,1,0,0,0,79,78,78,110,1,,,,,,,,,,,,,,,,,,,,,
,,,,,,,,,,,,,,,,,,,,,,,,,,,,,,,,,,,,,,,,,,,5f514e2a5552dd37bc2060f3,5fb5d986fb12541d19833626,2020-11-19_02h34.00.585,Colour_Similarity_Experiment,2020.1.2,Win32,60,5fb5945709dec70f2d595766,,,,,,,,,,,,,,,,,,,,PF,,,,,,,,0,1.14072,,,,,,,,,,,,,,,,,,,,,,,,,,,,4,-37,65,1,0,0,response7disk,4,-4,-1,1,0,0,rectangle,-4,-1,1,0,0,7,3,"[61,91,176,68,219,233,89,169,14,258,127,84,152,289,94,136,99,154,287,282]",-4,-1,1,0,0,0,80,79,79,70,1,,,,,,,,,,,,,,,,,,,,,
,,,,,,,,,,,,,,,,,,,,,,,,,,,,,,,,,,,,,,,,,,,5f514e2a5552dd37bc2060f3,5fb5d986fb12541d19833626,2020-11-19_02h34.00.585,Colour_Similarity_Experiment,2020.1.2,Win32,60,5fb5945709dec70f2d595766,,,,,,,,,,,,,,,,,,,,FF,,,,,,,,3,1.767345,,,,,,,,,,,,,,,,,,,,,,,,,,,,8,-25,-82,1,0,0,response5disk,9,0,-2,1,0,0,rectangle,0,-2,1,0,0,7,2,"[61,91,176,68,219,233,89,169,14,258,127,84,152,289,94,136,99,154,287,282]",0,-2,1,0,0,0,81,80,80,105,1,,,,,,,,,,,,,,,,,,,,,
,,,,,,,,,,,,,,,,,,,,,,,,,,,,,,,,,,,,,,,,,,,5f514e2a5552dd37bc2060f3,5fb5d986fb12541d19833626,2020-11-19_02h34.00.585,Colour_Similarity_Experiment,2020.1.2,Win32,60,5fb5945709dec70f2d595766,,,,,,,,,,,,,,,,,,,,FF,,,,,,,,7,1.161425,,,,,,,,,,,,,,,,,,,,,,,,,,,,1,18,47,1,0,0,response1disk,7,1,-12,1,0,0,rectangle,1,-12,1,0,0,7,3,"[61,91,176,68,219,233,89,169,14,258,127,84,152,289,94,136,99,154,287,282]",1,-12,1,0,0,0,82,81,81,137,1,,,,,,,,,,,,,,,,,,,,,
,,,,,,,,,,,,,,,,,,,,,,,,,,,,,,,,,,,,,,,,,,,5f514e2a5552dd37bc2060f3,5fb5d986fb12541d19833626,2020-11-19_02h34.00.585,Colour_Similarity_Experiment,2020.1.2,Win32,60,5fb5945709dec70f2d595766,,,,,,,,,,,,,,,,,,,,FF,,,,,,,,7,1.09514,,,,,,,,,,,,,,,,,,,,,,,,,,,,2,26,44,1,0,0,response1disk,5,5,5,1,0,0,rectangle,5,5,1,0,0,7,7,"[61,91,176,68,219,233,89,169,14,258,127,84,152,289,94,136,99,154,287,282]",5,5,1,0,0,0,83,82,82,80,1,,,,,,,,,,,,,,,,,,,,,
,,,,,,,,,,,,,,,,,,,,,,,,,,,,,,,,,,,,,,,,,,,5f514e2a5552dd37bc2060f3,5fb5d986fb12541d19833626,2020-11-19_02h34.00.585,Colour_Similarity_Experiment,2020.1.2,Win32,60,5fb5945709dec70f2d595766,,,,,,,,,,,,,,,,,,,,PF,,,,,,,,6,1.659735,,,,,,,,,,,,,,,,,,,,,,,,,,,,1,69,38,1,0,0,response1disk,2,-14,0,1,0,0,rectangle,-42,90,1,0,0,0,0,"[61,91,176,68,219,233,89,169,14,258,127,84,152,289,94,136,99,154,287,282]",1,10,1,0,0,0,84,83,83,24,1,response7disk_3,rectangle,,,,,,,,,,,,,,,,,,,
,,,,,,,,,,,,,,,,,,,,,,,,,,,,,,,,,,,,,,,,,,,5f514e2a5552dd37bc2060f3,5fb5d986fb12541d19833626,2020-11-19_02h34.00.585,Colour_Similarity_Experiment,2020.1.2,Win32,60,5fb5945709dec70f2d595766,,,,,,,,,,,,,,,,,,,,PF,,,,,,,,7,1.15635,,,,,,,,,,,,,,,,,,,,,,,,,,,,2,38,59,1,0,0,response1disk,8,0,-5,1,0,0,rectangle,0,-5,1,0,0,0,0,"[61,91,176,68,219,233,89,169,14,258,127,84,152,289,94,136,99,154,287,282]",0,-5,1,0,0,0,85,84,84,52,1,,,,,,,,,,,,,,,,,,,,,
,,,,,,,,,,,,,,,,,,,,,,,,,,,,,,,,,,,,,,,,,,,5f514e2a5552dd37bc2060f3,5fb5d986fb12541d19833626,2020-11-19_02h34.00.585,Colour_Similarity_Experiment,2020.1.2,Win32,60,5fb5945709dec70f2d595766,,,,,,,,,,,,,,,,,,,,PF,,,,,,,,7,0.86865,,,,,,,,,,,,,,,,,,,,,,,,,,,,4,23,58,1,0,0,response1disk,9,7,10,1,0,0,rectangle,7,10,1,0,0,0,6,"[61,91,176,68,219,233,89,169,14,258,127,84,152,289,94,136,99,154,287,282]",7,10,1,0,0,0,86,85,85,75,1,,,,,,,,,,,,,,,,,,,,,
,,,,,,,,,,,,,,,,,,,,,,,,,,,,,,,,,,,,,,,,,,,5f514e2a5552dd37bc2060f3,5fb5d986fb12541d19833626,2020-11-19_02h34.00.585,Colour_Similarity_Experiment,2020.1.2,Win32,60,5fb5945709dec70f2d595766,,,,,,,,,,,,,,,,,,,,FF,,,,,,,,0,1.137055,,,,,,,,,,,,,,,,,,,,,,,,,,,,2,-38,66,1,0,0,response7disk,2,-2,11,1,0,0,rectangle,-2,11,1,0,0,0,4,"[61,91,176,68,219,233,89,169,14,258,127,84,152,289,94,136,99,154,287,282]",-2,11,1,0,0,0,87,86,86,142,1,,,,,,,,,,,,,,,,,,,,,
,,,,,,,,,,,,,,,,,,,,,,,,,,,,,,,,,,,,,,,,,,,5f514e2a5552dd37bc2060f3,5fb5d986fb12541d19833626,2020-11-19_02h34.00.585,Colour_Similarity_Experiment,2020.1.2,Win32,60,5fb5945709dec70f2d595766,,,,,,,,,,,,,,,,,,,,FF,,,,,,,,7,1.663045,,,,,,,,,,,,,,,,,,,,,,,,,,,,1,21,49,1,0,0,response1disk,2,12,13,1,0,0,rectangle,12,13,1,0,0,0,3,"[61,91,176,68,219,233,89,169,14,258,127,84,152,289,94,136,99,154,287,282]",12,13,1,0,0,0,88,87,87,2,1,,,,,,,,,,,,,,,,,,,,,
,,,,,,,,,,,,,,,,,,,,,,,,,,,,,,,,,,,,,,,,,,,5f514e2a5552dd37bc2060f3,5fb5d986fb12541d19833626,2020-11-19_02h34.00.585,Colour_Similarity_Experiment,2020.1.2,Win32,60,5fb5945709dec70f2d595766,,,,,,,,,,,,,,,,,,,,PF,,,,,,,,7,1.140555,,,,,,,,,,,,,,,,,,,,,,,,,,,,1,21,61,1,0,0,response1disk,5,17,0,1,0,0,rectangle,-68,-47,1,0,0,0,2,"[61,91,176,68,219,233,89,169,14,258,127,84,152,289,94,136,99,154,287,282]",11,-5,1,0,0,0,89,88,88,28,1,response5disk_3,rectangle,,,,,,,,,,,,,,,,,,,
,,,,,,,,,,,,,,,,,,,,,,,,,,,,,,,,,,,,,,,,,,,5f514e2a5552dd37bc2060f3,5fb5d986fb12541d19833626,2020-11-19_02h34.00.585,Colour_Similarity_Experiment,2020.1.2,Win32,60,5fb5945709dec70f2d595766,,,,,,,,,,,,,,,,,,,,FF,,,,,,,,7,0.875515,,,,,,,,,,,,,,,,,,,,,,,,,,,,4,39,69,1,0,0,response1disk,6,0,6,1,0,0,rectangle,0,6,1,0,0,0,1,"[61,91,176,68,219,233,89,169,14,258,127,84,152,289,94,136,99,154,287,282]",0,6,1,0,0,0,90,89,89,122,1,,,,,,,,,,,,,,,,,,,,,
,,,,,,,,,,,,,,,,,,,,,,,,,,,,,,,,,,,,,,,,,,,5f514e2a5552dd37bc2060f3,5fb5d986fb12541d19833626,2020-11-19_02h34.00.585,Colour_Similarity_Experiment,2020.1.2,Win32,60,5fb5945709dec70f2d595766,,,,,,,,,,,,,,,,,,,,PF,,,,,,,,7,0.88825,,,,,,,,,,,,,,,,,,,,,,,,,,,,3,23,56,1,0,0,response1disk,8,5,-8,1,0,0,rectangle,71,-39,1,0,0,5,5,"[61,91,176,68,219,233,89,169,14,258,127,84,152,289,94,136,99,154,287,282]",6,8,1,0,0,0,91,90,90,3,1,response3disk_3,rectangle,,,,,,,,,,,,,,,,,,,
,,,,,,,,,,,,,,,,,,,,,,,,,,,,,,,,,,,,,,,,,,,5f514e2a5552dd37bc2060f3,5fb5d986fb12541d19833626,2020-11-19_02h34.00.585,Colour_Similarity_Experiment,2020.1.2,Win32,60,5fb5945709dec70f2d595766,,,,,,,,,,,,,,,,,,,,PF,,,,,,,,7,0.92932,,,,,,,,,,,,,,,,,,,,,,,,,,,,7,43,69,1,0,0,response1disk,3,9,2,1,0,0,rectangle,9,2,1,0,0,5,2,"[61,91,176,68,219,233,89,169,14,258,127,84,152,289,94,136,99,154,287,282]",9,2,1,0,0,0,92,91,91,81,1,,,,,,,,,,,,,,,,,,,,,
,,,,,,,,,,,,,,,,,,,,,,,,,,,,,,,,,,,,,,,,,,,5f514e2a5552dd37bc2060f3,5fb5d986fb12541d19833626,2020-11-19_02h34.00.585,Colour_Similarity_Experiment,2020.1.2,Win32,60,5fb5945709dec70f2d595766,,,,,,,,,,,,,,,,,,,,PF,,,,,,,,7,0.90944,,,,,,,,,,,,,,,,,,,,,,,,,,,,4,24,40,1,0,0,response1disk,8,2,-7,1,0,0,rectangle,2,-7,1,0,0,5,7,"[61,91,176,68,219,233,89,169,14,258,127,84,152,289,94,136,99,154,287,282]",2,-7,1,0,0,0,93,92,92,124,1,,,,,,,,,,,,,,,,,,,,,
,,,,,,,,,,,,,,,,,,,,,,,,,,,,,,,,,,,,,,,,,,,5f514e2a5552dd37bc2060f3,5fb5d986fb12541d19833626,2020-11-19_02h34.00.585,Colour_Similarity_Experiment,2020.1.2,Win32,60,5fb5945709dec70f2d595766,,,,,,,,,,,,,,,,,,,,FF,,,,,,,,7,0.95232,,,,,,,,,,,,,,,,,,,,,,,,,,,,8,19,46,1,0,0,response1disk,7,0,1,1,0,0,rectangle,-79,41,1,0,0,1,1,"[61,91,176,68,219,233,89,169,14,258,127,84,152,289,94,136,99,154,287,282]",1,2,1,0,0,0,94,93,93,86,1,response7disk_3,rectangle,,,,,,,,,,,,,,,,,,,
,,,,,,,,,,,,,,,,,,,,,,,,,,,,,,,,,,,,,,,,,,,5f514e2a5552dd37bc2060f3,5fb5d986fb12541d19833626,2020-11-19_02h34.00.585,Colour_Similarity_Experiment,2020.1.2,Win32,60,5fb5945709dec70f2d595766,,,,,,,,,,,,,,,,,,,,FF,,,,,,,,0,1.157385,,,,,,,,,,,,,,,,,,,,,,,,,,,,8,-28,68,1,0,0,response7disk,8,13,-10,1,0,0,rectangle,13,-10,1,0,0,1,1,"[61,91,176,68,219,233,89,169,14,258,127,84,152,289,94,136,99,154,287,282]",13,-10,1,0,0,0,95,94,94,48,1,,,,,,,,,,,,,,,,,,,,,
,,,,,,,,,,,,,,,,,,,,,,,,,,,,,,,,,,,,,,,,,,,5f514e2a5552dd37bc2060f3,5fb5d986fb12541d19833626,2020-11-19_02h34.00.585,Colour_Similarity_Experiment,2020.1.2,Win32,60,5fb5945709dec70f2d595766,,,,,,,,,,,,,,,,,,,,FF,,,,,,,,7,0.89463,,,,,,,,,,,,,,,,,,,,,,,,,,,,6,22,56,1,0,0,response1disk,3,0,-2,1,0,0,rectangle,0,-2,1,0,0,1,1,"[61,91,176,68,219,233,89,169,14,258,127,84,152,289,94,136,99,154,287,282]",0,-2,1,0,0,0,96,95,95,21,1,,,,,,,,,,,,,,,,,,,,,
,,,,,,,,,,,,,,,,,,,,,,,,,,,,,,,,,,,,,,,,,,,5f514e2a5552dd37bc2060f3,5fb5d986fb12541d19833626,2020-11-19_02h34.00.585,Colour_Similarity_Experiment,2020.1.2,Win32,60,5fb5945709dec70f2d595766,,,,,,,,,,,,,,,,,,,,PF,,,,,,,,7,0.880735,,,,,,,,,,,,,,,,,,,,,,,,,,,,9,17,56,1,0,0,response1disk,5,6,6,1,0,0,rectangle,6,6,1,0,0,1,2,"[61,91,176,68,219,233,89,169,14,258,127,84,152,289,94,136,99,154,287,282]",6,6,1,0,0,0,97,96,96,134,1,,,,,,,,,,,,,,,,,,,,,
,,,,,,,,,,,,,,,,,,,,,,,,,,,,,,,,,,,,,,,,,,,5f514e2a5552dd37bc2060f3,5fb5d986fb12541d19833626,2020-11-19_02h34.00.585,Colour_Similarity_Experiment,2020.1.2,Win32,60,5fb5945709dec70f2d595766,,,,,,,,,,,,,,,,,,,,PF,,,,,,,,5,2.07122,,,,,,,,,,,,,,,,,,,,,,,,,,,,3,80,-51,1,0,0,response3disk,4,4,1,1,0,0,rectangle,4,1,1,0,0,1,5,"[61,91,176,68,219,233,89,169,14,258,127,84,152,289,94,136,99,154,287,282]",4,1,1,0,0,0,98,97,97,30,1,,,,,,,,,,,,,,,,,,,,,
,,,,,,,,,,,,,,,,,,,,,,,,,,,,,,,,,,,,,,,,,,,5f514e2a5552dd37bc2060f3,5fb5d986fb12541d19833626,2020-11-19_02h34.00.585,Colour_Similarity_Experiment,2020.1.2,Win32,60,5fb5945709dec70f2d595766,,,,,,,,,,,,,,,,,,,,PF,,,,,,,,7,1.17058,,,,,,,,,,,,,,,,,,,,,,,,,,,,2,28,55,1,0,0,response1disk,5,2,8,1,0,0,rectangle,79,30,1,0,0,6,6,"[61,91,176,68,219,233,89,169,14,258,127,84,152,289,94,136,99,154,287,282]",7,-6,1,0,0,0,99,98,98,147,1,response1disk_3,rectangle,,,,,,,,,,,,,,,,,,,
,,,,,,,,,,,,,,,,,,,,,,,,,,,,,,,,,,,,,,,,,,,5f514e2a5552dd37bc2060f3,5fb5d986fb12541d19833626,2020-11-19_02h34.00.585,Colour_Similarity_Experiment,2020.1.2,Win32,60,5fb5945709dec70f2d595766,,,,,,,,,,,,,,,,,,,,PF,,,,,,,,7,1.498135,,,,,,,,,,,,,,,,,,,,,,,,,,,,7,34,57,1,0,0,response1disk,9,-4,-10,1,0,0,rectangle,-4,-10,1,0,0,6,0,"[61,91,176,68,219,233,89,169,14,258,127,84,152,289,94,136,99,154,287,282]",-4,-10,1,0,0,0,100,99,99,10,1,,,,,,,,,,,,,,,,,,,,,
,,,,,,,,,,,,,,,,,,,,,,,,,,,,,,,,,,,,,,,,,,,5f514e2a5552dd37bc2060f3,5fb5d986fb12541d19833626,2020-11-19_02h34.00.585,Colour_Similarity_Experiment,2020.1.2,Win32,60,5fb5945709dec70f2d595766,,,,,,,,,,,,,,,,,,,,PF,,,,,,,,5,2.664245,,,,,,,,,,,,,,,,,,,,,,,,,,,,5,67,-34,1,0,0,response3disk,4,-3,9,1,0,0,rectangle,-3,9,1,0,0,6,7,"[61,91,176,68,219,233,89,169,14,258,127,84,152,289,94,136,99,154,287,282]",-3,9,1,0,0,0,101,100,100,54,1,,,,,,,,,,,,,,,,,,,,,
,,,,,,,,,,,,,,,,,,,,,,,,,,,,,,,,,,,,,,,,,,,5f514e2a5552dd37bc2060f3,5fb5d986fb12541d19833626,2020-11-19_02h34.00.585,Colour_Similarity_Experiment,2020.1.2,Win32,60,5fb5945709dec70f2d595766,,,,,,,,,,,,,,,,,,,,PF,,,,,,,,7,1.25975,,,,,,,,,,,,,,,,,,,,,,,,,,,,1,28,44,1,0,0,response1disk,3,6,-8,1,0,0,rectangle,6,-8,1,0,0,6,2,"[61,91,176,68,219,233,89,169,14,258,127,84,152,289,94,136,99,154,287,282]",6,-8,1,0,0,0,102,101,101,1,1,,,,,,,,,,,,,,,,,,,,,
,,,,,,,,,,,,,,,,,,,,,,,,,,,,,,,,,,,,,,,,,,,5f514e2a5552dd37bc2060f3,5fb5d986fb12541d19833626,2020-11-19_02h34.00.585,Colour_Similarity_Experiment,2020.1.2,Win32,60,5fb5945709dec70f2d595766,,,,,,,,,,,,,,,,,,,,FF,,,,,,,,7,1.14168,,,,,,,,,,,,,,,,,,,,,,,,,,,,9,22,40,1,0,0,response1disk,4,16,-3,1,0,0,rectangle,16,-3,1,0,0,6,1,"[61,91,176,68,219,233,89,169,14,258,127,84,152,289,94,136,99,154,287,282]",16,-3,1,0,0,0,103,102,102,60,1,,,,,,,,,,,,,,,,,,,,,
,,,,,,,,,,,,,,,,,,,,,,,,,,,,,,,,,,,,,,,,,,,5f514e2a5552dd37bc2060f3,5fb5d986fb12541d19833626,2020-11-19_02h34.00.585,Colour_Similarity_Experiment,2020.1.2,Win32,60,5fb5945709dec70f2d595766,,,,,,,,,,,,,,,,,,,,FF,,,,,,,,5,2.015185,,,,,,,,,,,,,,,,,,,,,,,,,,,,7,67,-43,1,0,0,response3disk,6,4,-10,1,0,0,rectangle,4,-10,1,0,0,6,2,"[61,91,176,68,219,233,89,169,14,258,127,84,152,289,94,136,99,154,287,282]",4,-10,1,0,0,0,104,103,103,31,1,,,,,,,,,,,,,,,,,,,,,
,,,,,,,,,,,,,,,,,,,,,,,,,,,,,,,,,,,,,,,,,,,5f514e2a5552dd37bc2060f3,5fb5d986fb12541d19833626,2020-11-19_02h34.00.585,Colour_Similarity_Experiment,2020.1.2,Win32,60,5fb5945709dec70f2d595766,,,,,,,,,,,,,,,,,,,,FF,,,,,,,,5,2.358405,,,,,,,,,,,,,,,,,,,,,,,,,,,,6,58,-33,1,0,0,response3disk,7,4,-1,1,0,0,rectangle,4,-1,1,0,0,6,7,"[61,91,176,68,219,233,89,169,14,258,127,84,152,289,94,136,99,154,287,282]",4,-1,1,0,0,0,105,104,104,18,1,,,,,,,,,,,,,,,,,,,,,
,,,,,,,,,,,,,,,,,,,,,,,,,,,,,,,,,,,,,,,,,,,5f514e2a5552dd37bc2060f3,5fb5d986fb12541d19833626,2020-11-19_02h34.00.585,Colour_Similarity_Experiment,2020.1.2,Win32,60,5fb5945709dec70f2d595766,,,,,,,,,,,,,,,,,,,,PF,,,,,,,,7,2.070405,,,,,,,,,,,,,,,,,,,,,,,,,,,,1,21,43,1,0,0,response1disk,4,6,2,1,0,0,rectangle,6,2,1,0,0,6,2,"[61,91,176,68,219,233,89,169,14,258,127,84,152,289,94,136,99,154,287,282]",6,2,1,0,0,0,106,105,105,139,1,,,,,,,,,,,,,,,,,,,,,
,,,,,,,,,,,,,,,,,,,,,,,,,,,,,,,,,,,,,,,,,,,5f514e2a5552dd37bc2060f3,5fb5d986fb12541d19833626,2020-11-19_02h34.00.585,Colour_Similarity_Experiment,2020.1.2,Win32,60,5fb5945709dec70f2d595766,,,,,,,,,,,,,,,,,,,,FF,,,,,,,,7,1.121755,,,,,,,,,,,,,,,,,,,,,,,,,,,,3,25,49,1,0,0,response1disk,7,-1,3,1,0,0,rectangle,-1,3,1,0,0,6,3,"[61,91,176,68,219,233,89,169,14,258,127,84,152,289,94,136,99,154,287,282]",-1,3,1,0,0,0,107,106,106,118,1,,,,,,,,,,,,,,,,,,,,,
,,,,,,,,,,,,,,,,,,,,,,,,,,,,,,,,,,,,,,,,,,,5f514e2a5552dd37bc2060f3,5fb5d986fb12541d19833626,2020-11-19_02h34.00.585,Colour_Similarity_Experiment,2020.1.2,Win32,60,5fb5945709dec70f2d595766,,,,,,,,,,,,,,,,,,,,FF,,,,,,,,4,1.50038,,,,,,,,,,,,,,,,,,,,,,,,,,,,4,56,-78,1,0,0,response3disk,3,-1,-4,1,0,0,rectangle,-1,-4,1,0,0,6,0,"[61,91,176,68,219,233,89,169,14,258,127,84,152,289,94,136,99,154,287,282]",-1,-4,1,0,0,0,108,107,107,77,1,,,,,,,,,,,,,,,,,,,,,
,,,,,,,,,,,,,,,,,,,,,,,,,,,,,,,,,,,,,,,,,,,5f514e2a5552dd37bc2060f3,5fb5d986fb12541d19833626,2020-11-19_02h34.00.585,Colour_Similarity_Experiment,2020.1.2,Win32,60,5fb5945709dec70f2d595766,,,,,,,,,,,,,,,,,,,,FF,,,,,,,,7,0.967425,,,,,,,,,,,,,,,,,,,,,,,,,,,,8,19,45,1,0,0,response1disk,6,-1,-2,1,0,0,rectangle,-1,-2,1,0,0,6,1,"[61,91,176,68,219,233,89,169,14,258,127,84,152,289,94,136,99,154,287,282]",-1,-2,1,0,0,0,109,108,108,37,1,,,,,,,,,,,,,,,,,,,,,
,,,,,,,,,,,,,,,,,,,,,,,,,,,,,,,,,,,,,,,,,,,5f514e2a5552dd37bc2060f3,5fb5d986fb12541d19833626,2020-11-19_02h34.00.585,Colour_Similarity_Experiment,2020.1.2,Win32,60,5fb5945709dec70f2d595766,,,,,,,,,,,,,,,,,,,,FF,,,,,,,,7,1.224935,,,,,,,,,,,,,,,,,,,,,,,,,,,,3,23,52,1,0,0,response1disk,2,-2,-4,1,0,0,rectangle,-2,-4,1,0,0,6,4,"[61,91,176,68,219,233,89,169,14,258,127,84,152,289,94,136,99,154,287,282]",-2,-4,1,0,0,0,110,109,109,93,1,,,,,,,,,,,,,,,,,,,,,
,,,,,,,,,,,,,,,,,,,,,,,,,,,,,,,,,,,,,,,,,,,5f514e2a5552dd37bc2060f3,5fb5d986fb12541d19833626,2020-11-19_02h34.00.585,Colour_Similarity_Experiment,2020.1.2,Win32,60,5fb5945709dec70f2d595766,,,,,,,,,,,,,,,,,,,,FF,,,,,,,,7,1.7972,,,,,,,,,,,,,,,,,,,,,,,,,,,,4,24,56,1,0,0,response1disk,8,8,13,1,0,0,rectangle,8,13,1,0,0,6,2,"[61,91,176,68,219,233,89,169,14,258,127,84,152,289,94,136,99,154,287,282]",8,13,1,0,0,0,111,110,110,35,1,,,,,,,,,,,,,,,,,,,,,
,,,,,,,,,,,,,,,,,,,,,,,,,,,,,,,,,,,,,,,,,,,5f514e2a5552dd37bc2060f3,5fb5d986fb12541d19833626,2020-11-19_02h34.00.585,Colour_Similarity_Experiment,2020.1.2,Win32,60,5fb5945709dec70f2d595766,,,,,,,,,,,,,,,,,,,,FF,,,,,,,,6,1.72742,,,,,,,,,,,,,,,,,,,,,,,,,,,,1,84,38,1,0,0,response1disk,9,11,2,1,0,0,rectangle,11,2,1,0,0,6,3,"[61,91,176,68,219,233,89,169,14,258,127,84,152,289,94,136,99,154,287,282]",11,2,1,0,0,0,112,111,111,123,1,,,,,,,,,,,,,,,,,,,,,
,,,,,,,,,,,,,,,,,,,,,,,,,,,,,,,,,,,,,,,,,,,5f514e2a5552dd37bc2060f3,5fb5d986fb12541d19833626,2020-11-19_02h34.00.585,Colour_Similarity_Experiment,2020.1.2,Win32,60,5fb5945709dec70f2d595766,,,,,,,,,,,,,,,,,,,,PF,,,,,,,,0,1.101935,,,,,,,,,,,,,,,,,,,,,,,,,,,,6,-25,60,1,0,0,response7disk,6,3,5,1,0,0,rectangle,3,5,1,0,0,6,7,"[61,91,176,68,219,233,89,169,14,258,127,84,152,289,94,136,99,154,287,282]",3,5,1,0,0,0,113,112,112,0,1,,,,,,,,,,,,,,,,,,,,,
,,,,,,,,,,,,,,,,,,,,,,,,,,,,,,,,,,,,,,,,,,,5f514e2a5552dd37bc2060f3,5fb5d986fb12541d19833626,2020-11-19_02h34.00.585,Colour_Similarity_Experiment,2020.1.2,Win32,60,5fb5945709dec70f2d595766,,,,,,,,,,,,,,,,,,,,PF,,,,,,,,7,1.126135,,,,,,,,,,,,,,,,,,,,,,,,,,,,7,18,54,1,0,0,response1disk,1,0,7,1,0,0,rectangle,0,7,1,0,0,6,0,"[61,91,176,68,219,233,89,169,14,258,127,84,152,289,94,136,99,154,287,282]",0,7,1,0,0,0,114,113,113,53,1,,,,,,,,,,,,,,,,,,,,,
,,,,,,,,,,,,,,,,,,,,,,,,,,,,,,,,,,,,,,,,,,,5f514e2a5552dd37bc2060f3,5fb5d986fb12541d19833626,2020-11-19_02h34.00.585,Colour_Similarity_Experiment,2020.1.2,Win32,60,5fb5945709dec70f2d595766,,,,,,,,,,,,,,,,,,,,FF,,,,,,,,7,0.89929,,,,,,,,,,,,,,,,,,,,,,,,,,,,7,22,46,1,0,0,response1disk,9,0,7,1,0,0,rectangle,0,7,1,0,0,6,5,"[61,91,176,68,219,233,89,169,14,258,127,84,152,289,94,136,99,154,287,282]",0,7,1,0,0,0,115,114,114,155,1,,,,,,,,,,,,,,,,,,,,,
,,,,,,,,,,,,,,,,,,,,,,,,,,,,,,,,,,,,,,,,,,,5f514e2a5552dd37bc2060f3,5fb5d986fb12541d19833626,2020-11-19_02h34.00.585,Colour_Similarity_Experiment,2020.1.2,Win32,60,5fb5945709dec70f2d595766,,,,,,,,,,,,,,,,,,,,PF,,,,,,,,7,1.15704,,,,,,,,,,,,,,,,,,,,,,,,,,,,8,25,43,1,0,0,response1disk,6,1,4,1,0,0,rectangle,1,4,1,0,0,6,4,"[61,91,176,68,219,233,89,169,14,258,127,84,152,289,94,136,99,154,287,282]",1,4,1,0,0,0,116,115,115,161,1,,,,,,,,,,,,,,,,,,,,,
,,,,,,,,,,,,,,,,,,,,,,,,,,,,,,,,,,,,,,,,,,,5f514e2a5552dd37bc2060f3,5fb5d986fb12541d19833626,2020-11-19_02h34.00.585,Colour_Similarity_Experiment,2020.1.2,Win32,60,5fb5945709dec70f2d595766,,,,,,,,,,,,,,,,,,,,FF,,,,,,,,0,1.343175,,,,,,,,,,,,,,,,,,,,,,,,,,,,5,-34,68,1,0,0,response7disk,5,3,8,1,0,0,rectangle,3,8,1,0,0,6,3,"[61,91,176,68,219,233,89,169,14,258,127,84,152,289,94,136,99,154,287,282]",3,8,1,0,0,0,117,116,116,19,1,,,,,,,,,,,,,,,,,,,,,
,,,,,,,,,,,,,,,,,,,,,,,,,,,,,,,,,,,,,,,,,,,5f514e2a5552dd37bc2060f3,5fb5d986fb12541d19833626,2020-11-19_02h34.00.585,Colour_Similarity_Experiment,2020.1.2,Win32,60,5fb5945709dec70f2d595766,,,,,,,,,,,,,,,,,,,,FF,,,,,,,,7,1.16002,,,,,,,,,,,,,,,,,,,,,,,,,,,,2,23,47,1,0,0,response1disk,9,-1,9,1,0,0,rectangle,-1,9,1,0,0,6,0,"[61,91,176,68,219,233,89,169,14,258,127,84,152,289,94,136,99,154,287,282]",-1,9,1,0,0,0,118,117,117,72,1,,,,,,,,,,,,,,,,,,,,,
,,,,,,,,,,,,,,,,,,,,,,,,,,,,,,,,,,,,,,,,,,,5f514e2a5552dd37bc2060f3,5fb5d986fb12541d19833626,2020-11-19_02h34.00.585,Colour_Similarity_Experiment,2020.1.2,Win32,60,5fb5945709dec70f2d595766,,,,,,,,,,,,,,,,,,,,FF,,,,,,,,7,0.9073,,,,,,,,,,,,,,,,,,,,,,,,,,,,1,22,51,1,0,0,response1disk,3,-5,-1,1,0,0,rectangle,-5,-1,1,0,0,6,3,"[61,91,176,68,219,233,89,169,14,258,127,84,152,289,94,136,99,154,287,282]",-5,-1,1,0,0,0,119,118,118,99,1,,,,,,,,,,,,,,,,,,,,,
,,,,,,,,,,,,,,,,,,,,,,,,,,,,,,,,,,,,,,,,,,,5f514e2a5552dd37bc2060f3,5fb5d986fb12541d19833626,2020-11-19_02h34.00.585,Colour_Similarity_Experiment,2020.1.2,Win32,60,5fb5945709dec70f2d595766,,,,,,,,,,,,,,,,,,,,PF,,,,,,,,7,1.12071,,,,,,,,,,,,,,,,,,,,,,,,,,,,6,34,62,1,0,0,response1disk,4,5,6,1,0,0,rectangle,5,6,1,0,0,6,7,"[61,91,176,68,219,233,89,169,14,258,127,84,152,289,94,136,99,154,287,282]",5,6,1,0,0,0,120,119,119,33,1,,,,,,,,,,,,,,,,,,,,,
,,,,,,,,,,,,,,,,,,,,,,,,,,,,,,,,,,,,,,,,,,,5f514e2a5552dd37bc2060f3,5fb5d986fb12541d19833626,2020-11-19_02h34.00.585,Colour_Similarity_Experiment,2020.1.2,Win32,60,5fb5945709dec70f2d595766,,,,,,,,,,,,,,,,,,,,FF,,,,,,,,7,1.134355,,,,,,,,,,,,,,,,,,,,,,,,,,,,5,20,55,1,0,0,response1disk,2,2,7,1,0,0,rectangle,2,7,1,0,0,6,2,"[61,91,176,68,219,233,89,169,14,258,127,84,152,289,94,136,99,154,287,282]",2,7,1,0,0,0,121,120,120,55,1,,,,,,,,,,,,,,,,,,,,,
,,,,,,,,,,,,,,,,,,,,,,,,,,,,,,,,,,,,,,,,,,,5f514e2a5552dd37bc2060f3,5fb5d986fb12541d19833626,2020-11-19_02h34.00.585,Colour_Similarity_Experiment,2020.1.2,Win32,60,5fb5945709dec70f2d595766,,,,,,,,,,,,,,,,,,,,PF,,,,,,,,7,1.17423,,,,,,,,,,,,,,,,,,,,,,,,,,,,2,25,44,1,0,0,response1disk,9,1,10,1,0,0,rectangle,1,10,1,0,0,6,1,"[61,91,176,68,219,233,89,169,14,258,127,84,152,289,94,136,99,154,287,282]",1,10,1,0,0,0,122,121,121,39,1,,,,,,,,,,,,,,,,,,,,,
,,,,,,,,,,,,,,,,,,,,,,,,,,,,,,,,,,,,,,,,,,,5f514e2a5552dd37bc2060f3,5fb5d986fb12541d19833626,2020-11-19_02h34.00.585,Colour_Similarity_Experiment,2020.1.2,Win32,60,5fb5945709dec70f2d595766,,,,,,,,,,,,,,,,,,,,FF,,,,,,,,0,1.00142,,,,,,,,,,,,,,,,,,,,,,,,,,,,9,-25,59,1,0,0,response7disk,9,7,1,1,0,0,rectangle,7,1,1,0,0,6,6,"[61,91,176,68,219,233,89,169,14,258,127,84,152,289,94,136,99,154,287,282]",7,1,1,0,0,0,123,122,122,17,1,,,,,,,,,,,,,,,,,,,,,
,,,,,,,,,,,,,,,,,,,,,,,,,,,,,,,,,,,,,,,,,,,5f514e2a5552dd37bc2060f3,5fb5d986fb12541d19833626,2020-11-19_02h34.00.585,Colour_Similarity_Experiment,2020.1.2,Win32,60,5fb5945709dec70f2d595766,,,,,,,,,,,,,,,,,,,,PF,,,,,,,,7,1.11924,,,,,,,,,,,,,,,,,,,,,,,,,,,,1,15,41,1,0,0,response1disk,6,-6,1,1,0,0,rectangle,-6,1,1,0,0,6,6,"[61,91,176,68,219,233,89,169,14,258,127,84,152,289,94,136,99,154,287,282]",-6,1,1,0,0,0,124,123,123,144,1,,,,,,,,,,,,,,,,,,,,,
,,,,,,,,,,,,,,,,,,,,,,,,,,,,,,,,,,,,,,,,,,,5f514e2a5552dd37bc2060f3,5fb5d986fb12541d19833626,2020-11-19_02h34.00.585,Colour_Similarity_Experiment,2020.1.2,Win32,60,5fb5945709dec70f2d595766,,,,,,,,,,,,,,,,,,,,PF,,,,,,,,7,0.853675,,,,,,,,,,,,,,,,,,,,,,,,,,,,5,21,51,1,0,0,response1disk,2,7,8,1,0,0,rectangle,7,8,1,0,0,6,4,"[61,91,176,68,219,233,89,169,14,258,127,84,152,289,94,136,99,154,287,282]",7,8,1,0,0,0,125,124,124,129,1,,,,,,,,,,,,,,,,,,,,,
,,,,,,,,,,,,,,,,,,,,,,,,,,,,,,,,,,,,,,,,,,,5f514e2a5552dd37bc2060f3,5fb5d986fb12541d19833626,2020-11-19_02h34.00.585,Colour_Similarity_Experiment,2020.1.2,Win32,60,5fb5945709dec70f2d595766,,,,,,,,,,,,,,,,,,,,PF,,,,,,,,7,1.10968,,,,,,,,,,,,,,,,,,,,,,,,,,,,6,21,45,1,0,0,response1disk,3,4,9,1,0,0,rectangle,4,9,1,0,0,6,6,"[61,91,176,68,219,233,89,169,14,258,127,84,152,289,94,136,99,154,287,282]",4,9,1,0,0,0,126,125,125,26,1,,,,,,,,,,,,,,,,,,,,,
,,,,,,,,,,,,,,,,,,,,,,,,,,,,,,,,,,,,,,,,,,,5f514e2a5552dd37bc2060f3,5fb5d986fb12541d19833626,2020-11-19_02h34.00.585,Colour_Similarity_Experiment,2020.1.2,Win32,60,5fb5945709dec70f2d595766,,,,,,,,,,,,,,,,,,,,FF,,,,,,,,7,0.86709,,,,,,,,,,,,,,,,,,,,,,,,,,,,3,18,41,1,0,0,response1disk,1,3,7,1,0,0,rectangle,-52,-77,1,0,0,3,3,"[61,91,176,68,219,233,89,169,14,258,127,84,152,289,94,136,99,154,287,282]",-3,4,1,0,0,0,127,126,126,125,1,response5disk_3,rectangle,,,,,,,,,,,,,,,,,,,
,,,,,,,,,,,,,,,,,,,,,,,,,,,,,,,,,,,,,,,,,,,5f514e2a5552dd37bc2060f3,5fb5d986fb12541d19833626,2020-11-19_02h34.00.585,Colour_Similarity_Experiment,2020.1.2,Win32,60,5fb5945709dec70f2d595766,,,,,,,,,,,,,,,,,,,,PF,,,,,,,,0,1.16606,,,,,,,,,,,,,,,,,,,,,,,,,,,,8,-35,68,1,0,0,response7disk,8,4,8,1,0,0,rectangle,4,8,1,0,0,3,3,"[61,91,176,68,219,233,89,169,14,258,127,84,152,289,94,136,99,154,287,282]",4,8,1,0,0,0,128,127,127,153,1,,,,,,,,,,,,,,,,,,,,,
,,,,,,,,,,,,,,,,,,,,,,,,,,,,,,,,,,,,,,,,,,,5f514e2a5552dd37bc2060f3,5fb5d986fb12541d19833626,2020-11-19_02h34.00.585,Colour_Similarity_Experiment,2020.1.2,Win32,60,5fb5945709dec70f2d595766,,,,,,,,,,,,,,,,,,,,FF,,,,,,,,6,1.42892,,,,,,,,,,,,,,,,,,,,,,,,,,,,9,76,34,1,0,0,response1disk,8,3,3,1,0,0,rectangle,3,3,1,0,0,3,5,"[61,91,176,68,219,233,89,169,14,258,127,84,152,289,94,136,99,154,287,282]",3,3,1,0,0,0,129,128,128,6,1,,,,,,,,,,,,,,,,,,,,,
,,,,,,,,,,,,,,,,,,,,,,,,,,,,,,,,,,,,,,,,,,,5f514e2a5552dd37bc2060f3,5fb5d986fb12541d19833626,2020-11-19_02h34.00.585,Colour_Similarity_Experiment,2020.1.2,Win32,60,5fb5945709dec70f2d595766,,,,,,,,,,,,,,,,,,,,PF,,,,,,,,7,0.817785,,,,,,,,,,,,,,,,,,,,,,,,,,,,4,28,49,1,0,0,response1disk,1,9,5,1,0,0,rectangle,9,5,1,0,0,3,3,"[61,91,176,68,219,233,89,169,14,258,127,84,152,289,94,136,99,154,287,282]",9,5,1,0,0,0,130,129,129,115,1,,,,,,,,,,,,,,,,,,,,,
,,,,,,,,,,,,,,,,,,,,,,,,,,,,,,,,,,,,,,,,,,,5f514e2a5552dd37bc2060f3,5fb5d986fb12541d19833626,2020-11-19_02h34.00.585,Colour_Similarity_Experiment,2020.1.2,Win32,60,5fb5945709dec70f2d595766,,,,,,,,,,,,,,,,,,,,PF,,,,,,,,7,0.94845,,,,,,,,,,,,,,,,,,,,,,,,,,,,8,28,44,1,0,0,response1disk,7,0,-5,1,0,0,rectangle,0,-5,1,0,0,3,0,"[61,91,176,68,219,233,89,169,14,258,127,84,152,289,94,136,99,154,287,282]",0,-5,1,0,0,0,131,130,130,23,1,,,,,,,,,,,,,,,,,,,,,
,,,,,,,,,,,,,,,,,,,,,,,,,,,,,,,,,,,,,,,,,,,5f514e2a5552dd37bc2060f3,5fb5d986fb12541d19833626,2020-11-19_02h34.00.585,Colour_Similarity_Experiment,2020.1.2,Win32,60,5fb5945709dec70f2d595766,,,,,,,,,,,,,,,,,,,,PF,,,,,,,,7,0.85176,,,,,,,,,,,,,,,,,,,,,,,,,,,,2,23,49,1,0,0,response1disk,7,-2,-7,1,0,0,rectangle,-2,-7,1,0,0,3,6,"[61,91,176,68,219,233,89,169,14,258,127,84,152,289,94,136,99,154,287,282]",-2,-7,1,0,0,0,132,131,131,107,1,,,,,,,,,,,,,,,,,,,,,
,,,,,,,,,,,,,,,,,,,,,,,,,,,,,,,,,,,,,,,,,,,5f514e2a5552dd37bc2060f3,5fb5d986fb12541d19833626,2020-11-19_02h34.00.585,Colour_Similarity_Experiment,2020.1.2,Win32,60,5fb5945709dec70f2d595766,,,,,,,,,,,,,,,,,,,,PF,,,,,,,,7,0.89903,,,,,,,,,,,,,,,,,,,,,,,,,,,,9,22,44,1,0,0,response1disk,7,-4,9,1,0,0,rectangle,-4,9,1,0,0,3,0,"[61,91,176,68,219,233,89,169,14,258,127,84,152,289,94,136,99,154,287,282]",-4,9,1,0,0,0,133,132,132,121,1,,,,,,,,,,,,,,,,,,,,,
,,,,,,,,,,,,,,,,,,,,,,,,,,,,,,,,,,,,,,,,,,,5f514e2a5552dd37bc2060f3,5fb5d986fb12541d19833626,2020-11-19_02h34.00.585,Colour_Similarity_Experiment,2020.1.2,Win32,60,5fb5945709dec70f2d595766,,,,,,,,,,,,,,,,,,,,PF,,,,,,,,7,1.322905,,,,,,,,,,,,,,,,,,,,,,,,,,,,3,31,49,1,0,0,response1disk,9,7,3,1,0,0,rectangle,7,3,1,0,0,3,1,"[61,91,176,68,219,233,89,169,14,258,127,84,152,289,94,136,99,154,287,282]",7,3,1,0,0,0,134,133,133,79,1,,,,,,,,,,,,,,,,,,,,,
,,,,,,,,,,,,,,,,,,,,,,,,,,,,,,,,,,,,,,,,,,,5f514e2a5552dd37bc2060f3,5fb5d986fb12541d19833626,2020-11-19_02h34.00.585,Colour_Similarity_Experiment,2020.1.2,Win32,60,5fb5945709dec70f2d595766,,,,,,,,,,,,,,,,,,,,FF,,,,,,,,6,1.253735,,,,,,,,,,,,,,,,,,,,,,,,,,,,9,49,33,1,0,0,response1disk,1,-2,2,1,0,0,rectangle,-2,2,1,0,0,3,0,"[61,91,176,68,219,233,89,169,14,258,127,84,152,289,94,136,99,154,287,282]",-2,2,1,0,0,0,135,134,134,111,1,,,,,,,,,,,,,,,,,,,,,
,,,,,,,,,,,,,,,,,,,,,,,,,,,,,,,,,,,,,,,,,,,5f514e2a5552dd37bc2060f3,5fb5d986fb12541d19833626,2020-11-19_02h34.00.585,Colour_Similarity_Experiment,2020.1.2,Win32,60,5fb5945709dec70f2d595766,,,,,,,,,,,,,,,,,,,,PF,,,,,,,,7,0.938835,,,,,,,,,,,,,,,,,,,,,,,,,,,,6,19,43,1,0,0,response1disk,5,-2,14,1,0,0,rectangle,78,40,1,0,0,6,6,"[61,91,176,68,219,233,89,169,14,258,127,84,152,289,94,136,99,154,287,282]",12,8,1,0,0,0,136,135,135,59,1,response1disk_3,rectangle,,,,,,,,,,,,,,,,,,,
,,,,,,,,,,,,,,,,,,,,,,,,,,,,,,,,,,,,,,,,,,,5f514e2a5552dd37bc2060f3,5fb5d986fb12541d19833626,2020-11-19_02h34.00.585,Colour_Similarity_Experiment,2020.1.2,Win32,60,5fb5945709dec70f2d595766,,,,,,,,,,,,,,,,,,,,FF,,,,,,,,7,1.175455,,,,,,,,,,,,,,,,,,,,,,,,,,,,6,35,60,1,0,0,response1disk,2,7,1,1,0,0,rectangle,7,1,1,0,0,6,0,"[61,91,176,68,219,233,89,169,14,258,127,84,152,289,94,136,99,154,287,282]",7,1,1,0,0,0,137,136,136,112,1,,,,,,,,,,,,,,,,,,,,,
,,,,,,,,,,,,,,,,,,,,,,,,,,,,,,,,,,,,,,,,,,,5f514e2a5552dd37bc2060f3,5fb5d986fb12541d19833626,2020-11-19_02h34.00.585,Colour_Similarity_Experiment,2020.1.2,Win32,60,5fb5945709dec70f2d595766,,,,,,,,,,,,,,,,,,,,PF,,,,,,,,7,0.95461,,,,,,,,,,,,,,,,,,,,,,,,,,,,1,25,46,1,0,0,response1disk,8,-9,-7,1,0,0,rectangle,-9,-7,1,0,0,6,0,"[61,91,176,68,219,233,89,169,14,258,127,84,152,289,94,136,99,154,287,282]",-9,-7,1,0,0,0,138,137,137,65,1,,,,,,,,,,,,,,,,,,,,,
,,,,,,,,,,,,,,,,,,,,,,,,,,,,,,,,,,,,,,,,,,,5f514e2a5552dd37bc2060f3,5fb5d986fb12541d19833626,2020-11-19_02h34.00.585,Colour_Similarity_Experiment,2020.1.2,Win32,60,5fb5945709dec70f2d595766,,,,,,,,,,,,,,,,,,,,FF,,,,,,,,7,0.929425,,,,,,,,,,,,,,,,,,,,,,,,,,,,4,27,52,1,0,0,response1disk,1,10,12,1,0,0,rectangle,10,12,1,0,0,6,0,"[61,91,176,68,219,233,89,169,14,258,127,84,152,289,94,136,99,154,287,282]",10,12,1,0,0,0,139,138,138,102,1,,,,,,,,,,,,,,,,,,,,,
,,,,,,,,,,,,,,,,,,,,,,,,,,,,,,,,,,,,,,,,,,,5f514e2a5552dd37bc2060f3,5fb5d986fb12541d19833626,2020-11-19_02h34.00.585,Colour_Similarity_Experiment,2020.1.2,Win32,60,5fb5945709dec70f2d595766,,,,,,,,,,,,,,,,,,,,FF,,,,,,,,6,1.82684,,,,,,,,,,,,,,,,,,,,,,,,,,,,5,53,34,1,0,0,response1disk,6,7,1,1,0,0,rectangle,7,1,1,0,0,6,6,"[61,91,176,68,219,233,89,169,14,258,127,84,152,289,94,136,99,154,287,282]",7,1,1,0,0,0,140,139,139,12,1,,,,,,,,,,,,,,,,,,,,,
,,,,,,,,,,,,,,,,,,,,,,,,,,,,,,,,,,,,,,,,,,,5f514e2a5552dd37bc2060f3,5fb5d986fb12541d19833626,2020-11-19_02h34.00.585,Colour_Similarity_Experiment,2020.1.2,Win32,60,5fb5945709dec70f2d595766,,,,,,,,,,,,,,,,,,,,FF,,,,,,,,7,0.93121,,,,,,,,,,,,,,,,,,,,,,,,,,,,4,22,58,1,0,0,response1disk,2,-7,11,1,0,0,rectangle,-7,11,1,0,0,6,6,"[61,91,176,68,219,233,89,169,14,258,127,84,152,289,94,136,99,154,287,282]",-7,11,1,0,0,0,141,140,140,13,1,,,,,,,,,,,,,,,,,,,,,
,,,,,,,,,,,,,,,,,,,,,,,,,,,,,,,,,,,,,,,,,,,5f514e2a5552dd37bc2060f3,5fb5d986fb12541d19833626,2020-11-19_02h34.00.585,Colour_Similarity_Experiment,2020.1.2,Win32,60,5fb5945709dec70f2d595766,,,,,,,,,,,,,,,,,,,,FF,,,,,,,,7,0.92594,,,,,,,,,,,,,,,,,,,,,,,,,,,,6,28,82,1,0,0,response1disk,1,6,11,1,0,0,rectangle,6,11,1,0,0,6,3,"[61,91,176,68,219,233,89,169,14,258,127,84,152,289,94,136,99,154,287,282]",6,11,1,0,0,0,142,141,141,5,1,,,,,,,,,,,,,,,,,,,,,
,,,,,,,,,,,,,,,,,,,,,,,,,,,,,,,,,,,,,,,,,,,5f514e2a5552dd37bc2060f3,5fb5d986fb12541d19833626,2020-11-19_02h34.00.585,Colour_Similarity_Experiment,2020.1.2,Win32,60,5fb5945709dec70f2d595766,,,,,,,,,,,,,,,,,,,,FF,,,,,,,,7,0.96055,,,,,,,,,,,,,,,,,,,,,,,,,,,,3,25,43,1,0,0,response1disk,9,7,8,1,0,0,rectangle,7,8,1,0,0,6,4,"[61,91,176,68,219,233,89,169,14,258,127,84,152,289,94,136,99,154,287,282]",7,8,1,0,0,0,143,142,142,143,1,,,,,,,,,,,,,,,,,,,,,
,,,,,,,,,,,,,,,,,,,,,,,,,,,,,,,,,,,,,,,,,,,5f514e2a5552dd37bc2060f3,5fb5d986fb12541d19833626,2020-11-19_02h34.00.585,Colour_Similarity_Experiment,2020.1.2,Win32,60,5fb5945709dec70f2d595766,,,,,,,,,,,,,,,,,,,,PF,,,,,,,,6,1.208275,,,,,,,,,,,,,,,,,,,,,,,,,,,,8,38,32,1,0,0,response1disk,9,4,-2,1,0,0,rectangle,4,-2,1,0,0,6,6,"[61,91,176,68,219,233,89,169,14,258,127,84,152,289,94,136,99,154,287,282]",4,-2,1,0,0,0,144,143,143,42,1,,,,,,,,,,,,,,,,,,,,,
,,,,,,,,,,,,,,,,,,,,,,,,,,,,,,,,,,,,,,,,,,,5f514e2a5552dd37bc2060f3,5fb5d986fb12541d19833626,2020-11-19_02h34.00.585,Colour_Similarity_Experiment,2020.1.2,Win32,60,5fb5945709dec70f2d595766,,,,,,,,,,,,,,,,,,,,PF,,,,,,,,7,1.32227,,,,,,,,,,,,,,,,,,,,,,,,,,,,2,22,51,1,0,0,response1disk,3,0,1,1,0,0,rectangle,0,1,1,0,0,6,0,"[61,91,176,68,219,233,89,169,14,258,127,84,152,289,94,136,99,154,287,282]",0,1,1,0,0,0,145,144,144,69,1,,,,,,,,,,,,,,,,,,,,,
,,,,,,,,,,,,,,,,,,,,,,,,,,,,,,,,,,,,,,,,,,,5f514e2a5552dd37bc2060f3,5fb5d986fb12541d19833626,2020-11-19_02h34.00.585,Colour_Similarity_Experiment,2020.1.2,Win32,60,5fb5945709dec70f2d595766,,,,,,,,,,,,,,,,,,,,PF,,,,,,,,7,1.19478,,,,,,,,,,,,,,,,,,,,,,,,,,,,2,27,42,1,0,0,response1disk,4,6,2,1,0,0,rectangle,6,2,1,0,0,6,4,"[61,91,176,68,219,233,89,169,14,258,127,84,152,289,94,136,99,154,287,282]",6,2,1,0,0,0,146,145,145,127,1,,,,,,,,,,,,,,,,,,,,,
,,,,,,,,,,,,,,,,,,,,,,,,,,,,,,,,,,,,,,,,,,,5f514e2a5552dd37bc2060f3,5fb5d986fb12541d19833626,2020-11-19_02h34.00.585,Colour_Similarity_Experiment,2020.1.2,Win32,60,5fb5945709dec70f2d595766,,,,,,,,,,,,,,,,,,,,FF,,,,,,,,7,1.095995,,,,,,,,,,,,,,,,,,,,,,,,,,,,2,25,44,1,0,0,response1disk,6,-1,2,1,0,0,rectangle,-1,2,1,0,0,6,0,"[61,91,176,68,219,233,89,169,14,258,127,84,152,289,94,136,99,154,287,282]",-1,2,1,0,0,0,147,146,146,40,1,,,,,,,,,,,,,,,,,,,,,
,,,,,,,,,,,,,,,,,,,,,,,,,,,,,,,,,,,,,,,,,,,5f514e2a5552dd37bc2060f3,5fb5d986fb12541d19833626,2020-11-19_02h34.00.585,Colour_Similarity_Experiment,2020.1.2,Win32,60,5fb5945709dec70f2d595766,,,,,,,,,,,,,,,,,,,,FF,,,,,,,,7,0.866865,,,,,,,,,,,,,,,,,,,,,,,,,,,,8,25,47,1,0,0,response1disk,5,5,7,1,0,0,rectangle,5,7,1,0,0,6,4,"[61,91,176,68,219,233,89,169,14,258,127,84,152,289,94,136,99,154,287,282]",5,7,1,0,0,0,148,147,147,152,1,,,,,,,,,,,,,,,,,,,,,
,,,,,,,,,,,,,,,,,,,,,,,,,,,,,,,,,,,,,,,,,,,5f514e2a5552dd37bc2060f3,5fb5d986fb12541d19833626,2020-11-19_02h34.00.585,Colour_Similarity_Experiment,2020.1.2,Win32,60,5fb5945709dec70f2d595766,,,,,,,,,,,,,,,,,,,,PF,,,,,,,,7,0.832025,,,,,,,,,,,,,,,,,,,,,,,,,,,,2,25,49,1,0,0,response1disk,1,-1,3,1,0,0,rectangle,-1,3,1,0,0,6,3,"[61,91,176,68,219,233,89,169,14,258,127,84,152,289,94,136,99,154,287,282]",-1,3,1,0,0,0,149,148,148,9,1,,,,,,,,,,,,,,,,,,,,,
,,,,,,,,,,,,,,,,,,,,,,,,,,,,,,,,,,,,,,,,,,,5f514e2a5552dd37bc2060f3,5fb5d986fb12541d19833626,2020-11-19_02h34.00.585,Colour_Similarity_Experiment,2020.1.2,Win32,60,5fb5945709dec70f2d595766,,,,,,,,,,,,,,,,,,,,PF,,,,,,,,7,0.823855,,,,,,,,,,,,,,,,,,,,,,,,,,,,3,23,39,1,0,0,response1disk,7,12,4,1,0,0,rectangle,12,4,1,0,0,6,0,"[61,91,176,68,219,233,89,169,14,258,127,84,152,289,94,136,99,154,287,282]",12,4,1,0,0,0,150,149,149,41,1,,,,,,,,,,,,,,,,,,,,,
,,,,,,,,,,,,,,,,,,,,,,,,,,,,,,,,,,,,,,,,,,,5f514e2a5552dd37bc2060f3,5fb5d986fb12541d19833626,2020-11-19_02h34.00.585,Colour_Similarity_Experiment,2020.1.2,Win32,60,5fb5945709dec70f2d595766,,,,,,,,,,,,,,,,,,,,FF,,,,,,,,7,1.12725,,,,,,,,,,,,,,,,,,,,,,,,,,,,7,24,42,1,0,0,response1disk,4,-5,1,1,0,0,rectangle,-5,1,1,0,0,6,2,"[61,91,176,68,219,233,89,169,14,258,127,84,152,289,94,136,99,154,287,282]",-5,1,1,0,0,0,151,150,150,158,1,,,,,,,,,,,,,,,,,,,,,
,,,,,,,,,,,,,,,,,,,,,,,,,,,,,,,,,,,,,,,,,,,5f514e2a5552dd37bc2060f3,5fb5d986fb12541d19833626,2020-11-19_02h34.00.585,Colour_Similarity_Experiment,2020.1.2,Win32,60,5fb5945709dec70f2d595766,,,,,,,,,,,,,,,,,,,,PF,,,,,,,,7,0.909025,,,,,,,,,,,,,,,,,,,,,,,,,,,,7,22,46,1,0,0,response1disk,8,9,12,1,0,0,rectangle,42,38,1,0,0,6,6,"[61,91,176,68,219,233,89,169,14,258,127,84,152,289,94,136,99,154,287,282]",8,15,1,0,0,0,152,151,151,140,1,response1disk_3,rectangle,,,,,,,,,,,,,,,,,,,
,,,,,,,,,,,,,,,,,,,,,,,,,,,,,,,,,,,,,,,,,,,5f514e2a5552dd37bc2060f3,5fb5d986fb12541d19833626,2020-11-19_02h34.00.585,Colour_Similarity_Experiment,2020.1.2,Win32,60,5fb5945709dec70f2d595766,,,,,,,,,,,,,,,,,,,,FF,,,,,,,,7,1.194085,,,,,,,,,,,,,,,,,,,,,,,,,,,,8,27,41,1,0,0,response1disk,3,9,6,1,0,0,rectangle,9,6,1,0,0,6,1,"[61,91,176,68,219,233,89,169,14,258,127,84,152,289,94,136,99,154,287,282]",9,6,1,0,0,0,153,152,152,154,1,,,,,,,,,,,,,,,,,,,,,
,,,,,,,,,,,,,,,,,,,,,,,,,,,,,,,,,,,,,,,,,,,5f514e2a5552dd37bc2060f3,5fb5d986fb12541d19833626,2020-11-19_02h34.00.585,Colour_Similarity_Experiment,2020.1.2,Win32,60,5fb5945709dec70f2d595766,,,,,,,,,,,,,,,,,,,,PF,,,,,,,,7,1.16842,,,,,,,,,,,,,,,,,,,,,,,,,,,,9,18,38,1,0,0,response1disk,4,-8,5,1,0,0,rectangle,-77,50,1,0,0,1,1,"[61,91,176,68,219,233,89,169,14,258,127,84,152,289,94,136,99,154,287,282]",0,-7,1,0,0,0,154,153,153,114,1,response7disk_3,rectangle,,,,,,,,,,,,,,,,,,,
,,,,,,,,,,,,,,,,,,,,,,,,,,,,,,,,,,,,,,,,,,,5f514e2a5552dd37bc2060f3,5fb5d986fb12541d19833626,2020-11-19_02h34.00.585,Colour_Similarity_Experiment,2020.1.2,Win32,60,5fb5945709dec70f2d595766,,,,,,,,,,,,,,,,,,,,PF,,,,,,,,6,1.673,,,,,,,,,,,,,,,,,,,,,,,,,,,,9,46,35,1,0,0,response1disk,8,-3,-9,1,0,0,rectangle,-3,-9,1,0,0,1,0,"[61,91,176,68,219,233,89,169,14,258,127,84,152,289,94,136,99,154,287,282]",-3,-9,1,0,0,0,155,154,154,67,1,,,,,,,,,,,,,,,,,,,,,
,,,,,,,,,,,,,,,,,,,,,,,,,,,,,,,,,,,,,,,,,,,5f514e2a5552dd37bc2060f3,5fb5d986fb12541d19833626,2020-11-19_02h34.00.585,Colour_Similarity_Experiment,2020.1.2,Win32,60,5fb5945709dec70f2d595766,,,,,,,,,,,,,,,,,,,,FF,,,,,,,,6,1.371785,,,,,,,,,,,,,,,,,,,,,,,,,,,,5,53,27,1,0,0,response1disk,3,16,-2,1,0,0,rectangle,16,-2,1,0,0,1,3,"[61,91,176,68,219,233,89,169,14,258,127,84,152,289,94,136,99,154,287,282]",16,-2,1,0,0,0,156,155,155,25,1,,,,,,,,,,,,,,,,,,,,,
,,,,,,,,,,,,,,,,,,,,,,,,,,,,,,,,,,,,,,,,,,,5f514e2a5552dd37bc2060f3,5fb5d986fb12541d19833626,2020-11-19_02h34.00.585,Colour_Similarity_Experiment,2020.1.2,Win32,60,5fb5945709dec70f2d595766,,,,,,,,,,,,,,,,,,,,FF,,,,,,,,7,0.868205,,,,,,,,,,,,,,,,,,,,,,,,,,,,5,31,54,1,0,0,response1disk,1,4,0,1,0,0,rectangle,4,0,1,0,0,1,5,"[61,91,176,68,219,233,89,169,14,258,127,84,152,289,94,136,99,154,287,282]",4,0,1,0,0,0,157,156,156,131,1,,,,,,,,,,,,,,,,,,,,,
,,,,,,,,,,,,,,,,,,,,,,,,,,,,,,,,,,,,,,,,,,,5f514e2a5552dd37bc2060f3,5fb5d986fb12541d19833626,2020-11-19_02h34.00.585,Colour_Similarity_Experiment,2020.1.2,Win32,60,5fb5945709dec70f2d595766,,,,,,,,,,,,,,,,,,,,FF,,,,,,,,7,1.135575,,,,,,,,,,,,,,,,,,,,,,,,,,,,6,17,53,1,0,0,response1disk,4,2,-3,1,0,0,rectangle,2,-3,1,0,0,1,7,"[61,91,176,68,219,233,89,169,14,258,127,84,152,289,94,136,99,154,287,282]",2,-3,1,0,0,0,158,157,157,56,1,,,,,,,,,,,,,,,,,,,,,
,,,,,,,,,,,,,,,,,,,,,,,,,,,,,,,,,,,,,,,,,,,5f514e2a5552dd37bc2060f3,5fb5d986fb12541d19833626,2020-11-19_02h34.00.585,Colour_Similarity_Experiment,2020.1.2,Win32,60,5fb5945709dec70f2d595766,,,,,,,,,,,,,,,,,,,,FF,,,,,,,,7,0.850975,,,,,,,,,,,,,,,,,,,,,,,,,,,,9,29,42,1,0,0,response1disk,3,13,15,1,0,0,rectangle,13,15,1,0,0,1,1,"[61,91,176,68,219,233,89,169,14,258,127,84,152,289,94,136,99,154,287,282]",13,15,1,0,0,0,159,158,158,141,1,,,,,,,,,,,,,,,,,,,,,
,,,,,,,,,,,,,,,,,,,,,,,,,,,,,,,,,,,,,,,,,,,5f514e2a5552dd37bc2060f3,5fb5d986fb12541d19833626,2020-11-19_02h34.00.585,Colour_Similarity_Experiment,2020.1.2,Win32,60,5fb5945709dec70f2d595766,,,,,,,,,,,,,,,,,,,,FF,,,,,,,,7,0.846045,,,,,,,,,,,,,,,,,,,,,,,,,,,,7,20,41,1,0,0,response1disk,1,-6,-1,1,0,0,rectangle,-6,-1,1,0,0,1,0,"[61,91,176,68,219,233,89,169,14,258,127,84,152,289,94,136,99,154,287,282]",-6,-1,1,0,0,0,160,159,159,132,1,,,,,,,,,,,,,,,,,,,,,
,,,,,,,,,,,,,,,,,,,,,,,,,,,,,,,,,,,,,,,,,,,5f514e2a5552dd37bc2060f3,5fb5d986fb12541d19833626,2020-11-19_02h34.00.585,Colour_Similarity_Experiment,2020.1.2,Win32,60,5fb5945709dec70f2d595766,,,,,,,,,,,,,,,,,,,,FF,,,,,,,,6,1.68454,,,,,,,,,,,,,,,,,,,,,,,,,,,,5,46,32,1,0,0,response1disk,4,0,-5,1,0,0,rectangle,0,-5,1,0,0,1,4,"[61,91,176,68,219,233,89,169,14,258,127,84,152,289,94,136,99,154,287,282]",0,-5,1,0,0,0,161,160,160,8,1,,,,,,,,,,,,,,,,,,,,,
,,,,,,,,,,,,,,,,,,,,,,,,,,,,,,,,,,,,,,,,,,,5f514e2a5552dd37bc2060f3,5fb5d986fb12541d19833626,2020-11-19_02h34.00.585,Colour_Similarity_Experiment,2020.1.2,Win32,60,5fb5945709dec70f2d595766,,,,,,,,,,,,,,,,,,,,FF,,,,,,,,7,1.15238,,,,,,,,,,,,,,,,,,,,,,,,,,,,7,19,42,1,0,0,response1disk,2,-6,0,1,0,0,rectangle,-6,0,1,0,0,1,6,"[61,91,176,68,219,233,89,169,14,258,127,84,152,289,94,136,99,154,287,282]",-6,0,1,0,0,0,162,161,161,138,1,,,,,,,,,,,,,,,,,,,,,
,,,,,,,,,,,,,,,,,,,,,,,,,,,,,,,,,,,,,,,,,,,5f514e2a5552dd37bc2060f3,5fb5d986fb12541d19833626,2020-11-19_02h34.00.585,Colour_Similarity_Experiment,2020.1.2,Win32,60,5fb5945709dec70f2d595766,,,,,,,,,,,,,,,,,,,,,,,,,,,,,,,,,,,,,,,,,,,,,,,,,,,,,,,,,,,,,,,,,,,,,,,,,,,,,,,,,,,,,,,,,,,,0,0,0,0,1,,,,,,,,,,,,,,
,,,,,,,,,,,,,,,,,,,,,,,,,,,,,,,,,,,,,,,,,,,5f514e2a5552dd37bc2060f3,5fb5d986fb12541d19833626,2020-11-19_02h34.00.585,Colour_Similarity_Experiment,2020.1.2,Win32,60,5fb5945709dec70f2d595766,,,,,,,,,,,,,,,,,,,,FF,,,,,,,,7,0.877495,,,,,,,,,,,,,,,,,,,,,,,,,,,,8,28,84,1,0,0,response1disk,2,5,2,1,0,0,rectangle,5,2,1,0,0,1,4,"[61,91,176,68,219,233,89,169,14,258,127,84,152,289,94,136,99,154,287,282]",5,2,1,0,0,0,163,0,0,22,1,,,,,,,,,,,,,,,,,,,,,
,,,,,,,,,,,,,,,,,,,,,,,,,,,,,,,,,,,,,,,,,,,5f514e2a5552dd37bc2060f3,5fb5d986fb12541d19833626,2020-11-19_02h34.00.585,Colour_Similarity_Experiment,2020.1.2,Win32,60,5fb5945709dec70f2d595766,,,,,,,,,,,,,,,,,,,,PF,,,,,,,,7,0.89694,,,,,,,,,,,,,,,,,,,,,,,,,,,,6,40,47,1,0,0,response1disk,1,8,-13,1,0,0,rectangle,8,-13,1,0,0,1,5,"[61,91,176,68,219,233,89,169,14,258,127,84,152,289,94,136,99,154,287,282]",8,-13,1,0,0,0,164,1,1,46,1,,,,,,,,,,,,,,,,,,,,,
,,,,,,,,,,,,,,,,,,,,,,,,,,,,,,,,,,,,,,,,,,,5f514e2a5552dd37bc2060f3,5fb5d986fb12541d19833626,2020-11-19_02h34.00.585,Colour_Similarity_Experiment,2020.1.2,Win32,60,5fb5945709dec70f2d595766,,,,,,,,,,,,,,,,,,,,FF,,,,,,,,0,1.450395,,,,,,,,,,,,,,,,,,,,,,,,,,,,1,-31,65,1,0,0,response7disk,1,-1,5,1,0,0,rectangle,-1,5,1,0,0,1,5,"[61,91,176,68,219,233,89,169,14,258,127,84,152,289,94,136,99,154,287,282]",-1,5,1,0,0,0,165,2,2,151,1,,,,,,,,,,,,,,,,,,,,,
,,,,,,,,,,,,,,,,,,,,,,,,,,,,,,,,,,,,,,,,,,,5f514e2a5552dd37bc2060f3,5fb5d986fb12541d19833626,2020-11-19_02h34.00.585,Colour_Similarity_Experiment,2020.1.2,Win32,60,5fb5945709dec70f2d595766,,,,,,,,,,,,,,,,,,,,PF,,,,,,,,6,1.135215,,,,,,,,,,,,,,,,,,,,,,,,,,,,4,58,33,1,0,0,response1disk,5,2,-6,1,0,0,rectangle,2,-6,1,0,0,1,1,"[61,91,176,68,219,233,89,169,14,258,127,84,152,289,94,136,99,154,287,282]",2,-6,1,0,0,0,166,3,3,49,1,,,,,,,,,,,,,,,,,,,,,
,,,,,,,,,,,,,,,,,,,,,,,,,,,,,,,,,,,,,,,,,,,5f514e2a5552dd37bc2060f3,5fb5d986fb12541d19833626,2020-11-19_02h34.00.585,Colour_Similarity_Experiment,2020.1.2,Win32,60,5fb5945709dec70f2d595766,,,,,,,,,,,,,,,,,,,,FF,,,,,,,,7,2.28911,,,,,,,,,,,,,,,,,,,,,,,,,,,,3,25,61,1,0,0,response1disk,8,5,7,1,0,0,rectangle,5,7,1,0,0,1,4,"[61,91,176,68,219,233,89,169,14,258,127,84,152,289,94,136,99,154,287,282]",5,7,1,0,0,0,167,4,4,44,1,,,,,,,,,,,,,,,,,,,,,
,,,,,,,,,,,,,,,,,,,,,,,,,,,,,,,,,,,,,,,,,,,5f514e2a5552dd37bc2060f3,5fb5d986fb12541d19833626,2020-11-19_02h34.00.585,Colour_Similarity_Experiment,2020.1.2,Win32,60,5fb5945709dec70f2d595766,,,,,,,,,,,,,,,,,,,,FF,,,,,,,,7,0.86628,,,,,,,,,,,,,,,,,,,,,,,,,,,,6,23,48,1,0,0,response1disk,8,0,-2,1,0,0,rectangle,0,-2,1,0,0,1,1,"[61,91,176,68,219,233,89,169,14,258,127,84,152,289,94,136,99,154,287,282]",0,-2,1,0,0,0,168,5,5,133,1,,,,,,,,,,,,,,,,,,,,,
,,,,,,,,,,,,,,,,,,,,,,,,,,,,,,,,,,,,,,,,,,,5f514e2a5552dd37bc2060f3,5fb5d986fb12541d19833626,2020-11-19_02h34.00.585,Colour_Similarity_Experiment,2020.1.2,Win32,60,5fb5945709dec70f2d595766,,,,,,,,,,,,,,,,,,,,FF,,,,,,,,7,1.90457,,,,,,,,,,,,,,,,,,,,,,,,,,,,4,29,52,1,0,0,response1disk,9,3,7,1,0,0,rectangle,36,-66,1,0,0,4,4,"[61,91,176,68,219,233,89,169,14,258,127,84,152,289,94,136,99,154,287,282]",8,-3,1,0,0,0,169,6,6,90,1,response3disk_3,rectangle,,,,,,,,,,,,,,,,,,,
,,,,,,,,,,,,,,,,,,,,,,,,,,,,,,,,,,,,,,,,,,,5f514e2a5552dd37bc2060f3,5fb5d986fb12541d19833626,2020-11-19_02h34.00.585,Colour_Similarity_Experiment,2020.1.2,Win32,60,5fb5945709dec70f2d595766,,,,,,,,,,,,,,,,,,,,PF,,,,,,,,7,0.92765,,,,,,,,,,,,,,,,,,,,,,,,,,,,8,27,50,1,0,0,response1disk,5,9,3,1,0,0,rectangle,9,3,1,0,0,4,0,"[61,91,176,68,219,233,89,169,14,258,127,84,152,289,94,136,99,154,287,282]",9,3,1,0,0,0,170,7,7,98,1,,,,,,,,,,,,,,,,,,,,,
,,,,,,,,,,,,,,,,,,,,,,,,,,,,,,,,,,,,,,,,,,,5f514e2a5552dd37bc2060f3,5fb5d986fb12541d19833626,2020-11-19_02h34.00.585,Colour_Similarity_Experiment,2020.1.2,Win32,60,5fb5945709dec70f2d595766,,,,,,,,,,,,,,,,,,,,FF,,,,,,,,7,0.917775,,,,,,,,,,,,,,,,,,,,,,,,,,,,1,22,45,1,0,0,response1disk,5,7,9,1,0,0,rectangle,7,9,1,0,0,4,1,"[61,91,176,68,219,233,89,169,14,258,127,84,152,289,94,136,99,154,287,282]",7,9,1,0,0,0,171,8,8,82,1,,,,,,,,,,,,,,,,,,,,,
,,,,,,,,,,,,,,,,,,,,,,,,,,,,,,,,,,,,,,,,,,,5f514e2a5552dd37bc2060f3,5fb5d986fb12541d19833626,2020-11-19_02h34.00.585,Colour_Similarity_Experiment,2020.1.2,Win32,60,5fb5945709dec70f2d595766,,,,,,,,,,,,,,,,,,,,FF,,,,,,,,7,1.538935,,,,,,,,,,,,,,,,,,,,,,,,,,,,2,22,41,1,0,0,response1disk,7,0,2,1,0,0,rectangle,0,2,1,0,0,4,5,"[61,91,176,68,219,233,89,169,14,258,127,84,152,289,94,136,99,154,287,282]",0,2,1,0,0,0,172,9,9,63,1,,,,,,,,,,,,,,,,,,,,,
,,,,,,,,,,,,,,,,,,,,,,,,,,,,,,,,,,,,,,,,,,,5f514e2a5552dd37bc2060f3,5fb5d986fb12541d19833626,2020-11-19_02h34.00.585,Colour_Similarity_Experiment,2020.1.2,Win32,60,5fb5945709dec70f2d595766,,,,,,,,,,,,,,,,,,,,PF,,,,,,,,0,1.233265,,,,,,,,,,,,,,,,,,,,,,,,,,,,5,-26,70,1,0,0,response7disk,5,-2,3,1,0,0,rectangle,-2,3,1,0,0,4,2,"[61,91,176,68,219,233,89,169,14,258,127,84,152,289,94,136,99,154,287,282]",-2,3,1,0,0,0,173,10,10,94,1,,,,,,,,,,,,,,,,,,,,,
,,,,,,,,,,,,,,,,,,,,,,,,,,,,,,,,,,,,,,,,,,,5f514e2a5552dd37bc2060f3,5fb5d986fb12541d19833626,2020-11-19_02h34.00.585,Colour_Similarity_Experiment,2020.1.2,Win32,60,5fb5945709dec70f2d595766,,,,,,,,,,,,,,,,,,,,PF,,,,,,,,0,0.894145,,,,,,,,,,,,,,,,,,,,,,,,,,,,1,-26,45,1,0,0,response7disk,1,-1,4,1,0,0,rectangle,-1,4,1,0,0,4,4,"[61,91,176,68,219,233,89,169,14,258,127,84,152,289,94,136,99,154,287,282]",-1,4,1,0,0,0,174,11,11,76,1,,,,,,,,,,,,,,,,,,,,,
,,,,,,,,,,,,,,,,,,,,,,,,,,,,,,,,,,,,,,,,,,,5f514e2a5552dd37bc2060f3,5fb5d986fb12541d19833626,2020-11-19_02h34.00.585,Colour_Similarity_Experiment,2020.1.2,Win32,60,5fb5945709dec70f2d595766,,,,,,,,,,,,,,,,,,,,PF,,,,,,,,0,0.959705,,,,,,,,,,,,,,,,,,,,,,,,,,,,3,-27,46,1,0,0,response7disk,3,-4,6,1,0,0,rectangle,-4,6,1,0,0,4,6,"[61,91,176,68,219,233,89,169,14,258,127,84,152,289,94,136,99,154,287,282]",-4,6,1,0,0,0,175,12,12,4,1,,,,,,,,,,,,,,,,,,,,,
,,,,,,,,,,,,,,,,,,,,,,,,,,,,,,,,,,,,,,,,,,,5f514e2a5552dd37bc2060f3,5fb5d986fb12541d19833626,2020-11-19_02h34.00.585,Colour_Similarity_Experiment,2020.1.2,Win32,60,5fb5945709dec70f2d595766,,,,,,,,,,,,,,,,,,,,PF,,,,,,,,7,0.98905,,,,,,,,,,,,,,,,,,,,,,,,,,,,9,33,59,1,0,0,response1disk,2,3,3,1,0,0,rectangle,59,30,1,0,0,6,6,"[61,91,176,68,219,233,89,169,14,258,127,84,152,289,94,136,99,154,287,282]",19,2,1,0,0,0,176,13,13,157,1,response1disk_3,rectangle,,,,,,,,,,,,,,,,,,,
,,,,,,,,,,,,,,,,,,,,,,,,,,,,,,,,,,,,,,,,,,,5f514e2a5552dd37bc2060f3,5fb5d986fb12541d19833626,2020-11-19_02h34.00.585,Colour_Similarity_Experiment,2020.1.2,Win32,60,5fb5945709dec70f2d595766,,,,,,,,,,,,,,,,,,,,PF,,,,,,,,7,1.22114,,,,,,,,,,,,,,,,,,,,,,,,,,,,6,25,44,1,0,0,response1disk,9,-1,1,1,0,0,rectangle,-1,1,1,0,0,6,4,"[61,91,176,68,219,233,89,169,14,258,127,84,152,289,94,136,99,154,287,282]",-1,1,1,0,0,0,177,14,14,45,1,,,,,,,,,,,,,,,,,,,,,
,,,,,,,,,,,,,,,,,,,,,,,,,,,,,,,,,,,,,,,,,,,5f514e2a5552dd37bc2060f3,5fb5d986fb12541d19833626,2020-11-19_02h34.00.585,Colour_Similarity_Experiment,2020.1.2,Win32,60,5fb5945709dec70f2d595766,,,,,,,,,,,,,,,,,,,,FF,,,,,,,,7,1.838905,,,,,,,,,,,,,,,,,,,,,,,,,,,,7,46,60,1,0,0,response1disk,5,4,0,1,0,0,rectangle,4,0,1,0,0,6,0,"[61,91,176,68,219,233,89,169,14,258,127,84,152,289,94,136,99,154,287,282]",4,0,1,0,0,0,178,15,15,156,1,,,,,,,,,,,,,,,,,,,,,
,,,,,,,,,,,,,,,,,,,,,,,,,,,,,,,,,,,,,,,,,,,5f514e2a5552dd37bc2060f3,5fb5d986fb12541d19833626,2020-11-19_02h34.00.585,Colour_Similarity_Experiment,2020.1.2,Win32,60,5fb5945709dec70f2d595766,,,,,,,,,,,,,,,,,,,,PF,,,,,,,,6,1.23241,,,,,,,,,,,,,,,,,,,,,,,,,,,,1,74,45,1,0,0,response1disk,9,-1,10,1,0,0,rectangle,-1,10,1,0,0,6,1,"[61,91,176,68,219,233,89,169,14,258,127,84,152,289,94,136,99,154,287,282]",-1,10,1,0,0,0,179,16,16,15,1,,,,,,,,,,,,,,,,,,,,,
,,,,,,,,,,,,,,,,,,,,,,,,,,,,,,,,,,,,,,,,,,,5f514e2a5552dd37bc2060f3,5fb5d986fb12541d19833626,2020-11-19_02h34.00.585,Colour_Similarity_Experiment,2020.1.2,Win32,60,5fb5945709dec70f2d595766,,,,,,,,,,,,,,,,,,,,PF,,,,,,,,7,0.89838,,,,,,,,,,,,,,,,,,,,,,,,,,,,8,29,66,1,0,0,response1disk,3,1,0,1,0,0,rectangle,1,0,1,0,0,6,3,"[61,91,176,68,219,233,89,169,14,258,127,84,152,289,94,136,99,154,287,282]",1,0,1,0,0,0,180,17,17,71,1,,,,,,,,,,,,,,,,,,,,,
,,,,,,,,,,,,,,,,,,,,,,,,,,,,,,,,,,,,,,,,,,,5f514e2a5552dd37bc2060f3,5fb5d986fb12541d19833626,2020-11-19_02h34.00.585,Colour_Similarity_Experiment,2020.1.2,Win32,60,5fb5945709dec70f2d595766,,,,,,,,,,,,,,,,,,,,PF,,,,,,,,7,0.92942,,,,,,,,,,,,,,,,,,,,,,,,,,,,5,25,53,1,0,0,response1disk,1,1,14,1,0,0,rectangle,1,14,1,0,0,6,3,"[61,91,176,68,219,233,89,169,14,258,127,84,152,289,94,136,99,154,287,282]",1,14,1,0,0,0,181,18,18,159,1,,,,,,,,,,,,,,,,,,,,,
,,,,,,,,,,,,,,,,,,,,,,,,,,,,,,,,,,,,,,,,,,,5f514e2a5552dd37bc2060f3,5fb5d986fb12541d19833626,2020-11-19_02h34.00.585,Colour_Similarity_Experiment,2020.1.2,Win32,60,5fb5945709dec70f2d595766,,,,,,,,,,,,,,,,,,,,PF,,,,,,,,0,1.23062,,,,,,,,,,,,,,,,,,,,,,,,,,,,9,-23,54,1,0,0,response7disk,9,8,-5,1,0,0,rectangle,8,-5,1,0,0,6,1,"[61,91,176,68,219,233,89,169,14,258,127,84,152,289,94,136,99,154,287,282]",8,-5,1,0,0,0,182,19,19,106,1,,,,,,,,,,,,,,,,,,,,,
,,,,,,,,,,,,,,,,,,,,,,,,,,,,,,,,,,,,,,,,,,,5f514e2a5552dd37bc2060f3,5fb5d986fb12541d19833626,2020-11-19_02h34.00.585,Colour_Similarity_Experiment,2020.1.2,Win32,60,5fb5945709dec70f2d595766,,,,,,,,,,,,,,,,,,,,FF,,,,,,,,7,1.035495,,,,,,,,,,,,,,,,,,,,,,,,,,,,5,28,55,1,0,0,response1disk,8,-1,4,1,0,0,rectangle,-1,4,1,0,0,6,1,"[61,91,176,68,219,233,89,169,14,258,127,84,152,289,94,136,99,154,287,282]",-1,4,1,0,0,0,183,20,20,16,1,,,,,,,,,,,,,,,,,,,,,
,,,,,,,,,,,,,,,,,,,,,,,,,,,,,,,,,,,,,,,,,,,5f514e2a5552dd37bc2060f3,5fb5d986fb12541d19833626,2020-11-19_02h34.00.585,Colour_Similarity_Experiment,2020.1.2,Win32,60,5fb5945709dec70f2d595766,,,,,,,,,,,,,,,,,,,,PF,,,,,,,,7,1.155555,,,,,,,,,,,,,,,,,,,,,,,,,,,,7,22,61,1,0,0,response1disk,4,1,-1,1,0,0,rectangle,1,-1,1,0,0,6,4,"[61,91,176,68,219,233,89,169,14,258,127,84,152,289,94,136,99,154,287,282]",1,-1,1,0,0,0,184,21,21,43,1,,,,,,,,,,,,,,,,,,,,,
,,,,,,,,,,,,,,,,,,,,,,,,,,,,,,,,,,,,,,,,,,,5f514e2a5552dd37bc2060f3,5fb5d986fb12541d19833626,2020-11-19_02h34.00.585,Colour_Similarity_Experiment,2020.1.2,Win32,60,5fb5945709dec70f2d595766,,,,,,,,,,,,,,,,,,,,PF,,,,,,,,6,1.18704,,,,,,,,,,,,,,,,,,,,,,,,,,,,7,60,28,1,0,0,response1disk,6,-1,-2,1,0,0,rectangle,-1,-2,1,0,0,6,7,"[61,91,176,68,219,233,89,169,14,258,127,84,152,289,94,136,99,154,287,282]",-1,-2,1,0,0,0,185,22,22,29,1,,,,,,,,,,,,,,,,,,,,,
,,,,,,,,,,,,,,,,,,,,,,,,,,,,,,,,,,,,,,,,,,,5f514e2a5552dd37bc2060f3,5fb5d986fb12541d19833626,2020-11-19_02h34.00.585,Colour_Similarity_Experiment,2020.1.2,Win32,60,5fb5945709dec70f2d595766,,,,,,,,,,,,,,,,,,,,PF,,,,,,,,0,1.242205,,,,,,,,,,,,,,,,,,,,,,,,,,,,7,-23,77,1,0,0,response7disk,7,2,10,1,0,0,rectangle,2,10,1,0,0,6,2,"[61,91,176,68,219,233,89,169,14,258,127,84,152,289,94,136,99,154,287,282]",2,10,1,0,0,0,186,23,23,51,1,,,,,,,,,,,,,,,,,,,,,
,,,,,,,,,,,,,,,,,,,,,,,,,,,,,,,,,,,,,,,,,,,5f514e2a5552dd37bc2060f3,5fb5d986fb12541d19833626,2020-11-19_02h34.00.585,Colour_Similarity_Experiment,2020.1.2,Win32,60,5fb5945709dec70f2d595766,,,,,,,,,,,,,,,,,,,,FF,,,,,,,,7,1.99851,,,,,,,,,,,,,,,,,,,,,,,,,,,,1,23,53,1,0,0,response1disk,6,-7,4,1,0,0,rectangle,-7,4,1,0,0,6,6,"[61,91,176,68,219,233,89,169,14,258,127,84,152,289,94,136,99,154,287,282]",-7,4,1,0,0,0,187,24,24,58,1,,,,,,,,,,,,,,,,,,,,,
,,,,,,,,,,,,,,,,,,,,,,,,,,,,,,,,,,,,,,,,,,,5f514e2a5552dd37bc2060f3,5fb5d986fb12541d19833626,2020-11-19_02h34.00.585,Colour_Similarity_Experiment,2020.1.2,Win32,60,5fb5945709dec70f2d595766,,,,,,,,,,,,,,,,,,,,FF,,,,,,,,7,0.841945,,,,,,,,,,,,,,,,,,,,,,,,,,,,7,26,59,1,0,0,response1disk,3,-1,6,1,0,0,rectangle,-1,6,1,0,0,6,7,"[61,91,176,68,219,233,89,169,14,258,127,84,152,289,94,136,99,154,287,282]",-1,6,1,0,0,0,188,25,25,73,1,,,,,,,,,,,,,,,,,,,,,
,,,,,,,,,,,,,,,,,,,,,,,,,,,,,,,,,,,,,,,,,,,5f514e2a5552dd37bc2060f3,5fb5d986fb12541d19833626,2020-11-19_02h34.00.585,Colour_Similarity_Experiment,2020.1.2,Win32,60,5fb5945709dec70f2d595766,,,,,,,,,,,,,,,,,,,,PF,,,,,,,,7,0.85703,,,,,,,,,,,,,,,,,,,,,,,,,,,,8,26,57,1,0,0,response1disk,1,10,0,1,0,0,rectangle,10,0,1,0,0,6,2,"[61,91,176,68,219,233,89,169,14,258,127,84,152,289,94,136,99,154,287,282]",10,0,1,0,0,0,189,26,26,57,1,,,,,,,,,,,,,,,,,,,,,
,,,,,,,,,,,,,,,,,,,,,,,,,,,,,,,,,,,,,,,,,,,5f514e2a5552dd37bc2060f3,5fb5d986fb12541d19833626,2020-11-19_02h34.00.585,Colour_Similarity_Experiment,2020.1.2,Win32,60,5fb5945709dec70f2d595766,,,,,,,,,,,,,,,,,,,,FF,,,,,,,,7,2.748865,,,,,,,,,,,,,,,,,,,,,,,,,,,,1,28,52,1,0,0,response1disk,4,2,10,1,0,0,rectangle,2,10,1,0,0,6,1,"[61,91,176,68,219,233,89,169,14,258,127,84,152,289,94,136,99,154,287,282]",2,10,1,0,0,0,190,27,27,135,1,,,,,,,,,,,,,,,,,,,,,
,,,,,,,,,,,,,,,,,,,,,,,,,,,,,,,,,,,,,,,,,,,5f514e2a5552dd37bc2060f3,5fb5d986fb12541d19833626,2020-11-19_02h34.00.585,Colour_Similarity_Experiment,2020.1.2,Win32,60,5fb5945709dec70f2d595766,,,,,,,,,,,,,,,,,,,,FF,,,,,,,,0,0.91696,,,,,,,,,,,,,,,,,,,,,,,,,,,,6,-52,70,1,0,0,response7disk,6,-10,5,1,0,0,rectangle,-10,5,1,0,0,6,0,"[61,91,176,68,219,233,89,169,14,258,127,84,152,289,94,136,99,154,287,282]",-10,5,1,0,0,0,191,28,28,91,1,,,,,,,,,,,,,,,,,,,,,
,,,,,,,,,,,,,,,,,,,,,,,,,,,,,,,,,,,,,,,,,,,5f514e2a5552dd37bc2060f3,5fb5d986fb12541d19833626,2020-11-19_02h34.00.585,Colour_Similarity_Experiment,2020.1.2,Win32,60,5fb5945709dec70f2d595766,,,,,,,,,,,,,,,,,,,,FF,,,,,,,,6,1.750825,,,,,,,,,,,,,,,,,,,,,,,,,,,,4,88,39,1,0,0,response1disk,5,15,-6,1,0,0,rectangle,15,-6,1,0,0,6,5,"[61,91,176,68,219,233,89,169,14,258,127,84,152,289,94,136,99,154,287,282]",15,-6,1,0,0,0,192,29,29,116,1,,,,,,,,,,,,,,,,,,,,,
,,,,,,,,,,,,,,,,,,,,,,,,,,,,,,,,,,,,,,,,,,,5f514e2a5552dd37bc2060f3,5fb5d986fb12541d19833626,2020-11-19_02h34.00.585,Colour_Similarity_Experiment,2020.1.2,Win32,60,5fb5945709dec70f2d595766,,,,,,,,,,,,,,,,,,,,PF,,,,,,,,7,1.391055,,,,,,,,,,,,,,,,,,,,,,,,,,,,7,44,55,1,0,0,response1disk,5,3,-9,1,0,0,rectangle,3,-9,1,0,0,6,5,"[61,91,176,68,219,233,89,169,14,258,127,84,152,289,94,136,99,154,287,282]",3,-9,1,0,0,0,193,30,30,92,1,,,,,,,,,,,,,,,,,,,,,
,,,,,,,,,,,,,,,,,,,,,,,,,,,,,,,,,,,,,,,,,,,5f514e2a5552dd37bc2060f3,5fb5d986fb12541d19833626,2020-11-19_02h34.00.585,Colour_Similarity_Experiment,2020.1.2,Win32,60,5fb5945709dec70f2d595766,,,,,,,,,,,,,,,,,,,,FF,,,,,,,,7,1.10844,,,,,,,,,,,,,,,,,,,,,,,,,,,,5,30,54,1,0,0,response1disk,9,-7,10,1,0,0,rectangle,-7,10,1,0,0,6,3,"[61,91,176,68,219,233,89,169,14,258,127,84,152,289,94,136,99,154,287,282]",-7,10,1,0,0,0,194,31,31,61,1,,,,,,,,,,,,,,,,,,,,,
,,,,,,,,,,,,,,,,,,,,,,,,,,,,,,,,,,,,,,,,,,,5f514e2a5552dd37bc2060f3,5fb5d986fb12541d19833626,2020-11-19_02h34.00.585,Colour_Similarity_Experiment,2020.1.2,Win32,60,5fb5945709dec70f2d595766,,,,,,,,,,,,,,,,,,,,PF,,,,,,,,6,1.41049,,,,,,,,,,,,,,,,,,,,,,,,,,,,6,74,34,1,0,0,response1disk,7,17,7,1,0,0,rectangle,17,7,1,0,0,6,0,"[61,91,176,68,219,233,89,169,14,258,127,84,152,289,94,136,99,154,287,282]",17,7,1,0,0,0,195,32,32,50,1,,,,,,,,,,,,,,,,,,,,,
,,,,,,,,,,,,,,,,,,,,,,,,,,,,,,,,,,,,,,,,,,,5f514e2a5552dd37bc2060f3,5fb5d986fb12541d19833626,2020-11-19_02h34.00.585,Colour_Similarity_Experiment,2020.1.2,Win32,60,5fb5945709dec70f2d595766,,,,,,,,,,,,,,,,,,,,PF,,,,,,,,7,0.909475,,,,,,,,,,,,,,,,,,,,,,,,,,,,7,38,56,1,0,0,response1disk,2,-1,9,1,0,0,rectangle,-1,9,1,0,0,6,5,"[61,91,176,68,219,233,89,169,14,258,127,84,152,289,94,136,99,154,287,282]",-1,9,1,0,0,0,196,33,33,32,1,,,,,,,,,,,,,,,,,,,,,
,,,,,,,,,,,,,,,,,,,,,,,,,,,,,,,,,,,,,,,,,,,5f514e2a5552dd37bc2060f3,5fb5d986fb12541d19833626,2020-11-19_02h34.00.585,Colour_Similarity_Experiment,2020.1.2,Win32,60,5fb5945709dec70f2d595766,,,,,,,,,,,,,,,,,,,,PF,,,,,,,,7,1.17961,,,,,,,,,,,,,,,,,,,,,,,,,,,,2,35,54,1,0,0,response1disk,6,-9,-10,1,0,0,rectangle,-9,-10,1,0,0,6,5,"[61,91,176,68,219,233,89,169,14,258,127,84,152,289,94,136,99,154,287,282]",-9,-10,1,0,0,0,197,34,34,113,1,,,,,,,,,,,,,,,,,,,,,
,,,,,,,,,,,,,,,,,,,,,,,,,,,,,,,,,,,,,,,,,,,5f514e2a5552dd37bc2060f3,5fb5d986fb12541d19833626,2020-11-19_02h34.00.585,Colour_Similarity_Experiment,2020.1.2,Win32,60,5fb5945709dec70f2d595766,,,,,,,,,,,,,,,,,,,,PF,,,,,,,,0,0.83238,,,,,,,,,,,,,,,,,,,,,,,,,,,,2,-29,62,1,0,0,response7disk,2,3,2,1,0,0,rectangle,3,2,1,0,0,6,5,"[61,91,176,68,219,233,89,169,14,258,127,84,152,289,94,136,99,154,287,282]",3,2,1,0,0,0,198,35,35,14,1,,,,,,,,,,,,,,,,,,,,,
,,,,,,,,,,,,,,,,,,,,,,,,,,,,,,,,,,,,,,,,,,,5f514e2a5552dd37bc2060f3,5fb5d986fb12541d19833626,2020-11-19_02h34.00.585,Colour_Similarity_Experiment,2020.1.2,Win32,60,5fb5945709dec70f2d595766,,,,,,,,,,,,,,,,,,,,PF,,,,,,,,7,4.235525,,,,,,,,,,,,,,,,,,,,,,,,,,,,5,22,71,1,0,0,response1disk,6,2,6,1,0,0,rectangle,2,6,1,0,0,6,5,"[61,91,176,68,219,233,89,169,14,258,127,84,152,289,94,136,99,154,287,282]",2,6,1,0,0,0,199,36,36,103,1,,,,,,,,,,,,,,,,,,,,,
,,,,,,,,,,,,,,,,,,,,,,,,,,,,,,,,,,,,,,,,,,,5f514e2a5552dd37bc2060f3,5fb5d986fb12541d19833626,2020-11-19_02h34.00.585,Colour_Similarity_Experiment,2020.1.2,Win32,60,5fb5945709dec70f2d595766,,,,,,,,,,,,,,,,,,,,FF,,,,,,,,7,0.83991,,,,,,,,,,,,,,,,,,,,,,,,,,,,1,41,71,1,0,0,response1disk,8,11,11,1,0,0,rectangle,11,11,1,0,0,6,2,"[61,91,176,68,219,233,89,169,14,258,127,84,152,289,94,136,99,154,287,282]",11,11,1,0,0,0,200,37,37,27,1,,,,,,,,,,,,,,,,,,,,,
,,,,,,,,,,,,,,,,,,,,,,,,,,,,,,,,,,,,,,,,,,,5f514e2a5552dd37bc2060f3,5fb5d986fb12541d19833626,2020-11-19_02h34.00.585,Colour_Similarity_Experiment,2020.1.2,Win32,60,5fb5945709dec70f2d595766,,,,,,,,,,,,,,,,,,,,FF,,,,,,,,7,0.56133,,,,,,,,,,,,,,,,,,,,,,,,,,,,6,34,67,1,0,0,response1disk,9,10,10,1,0,0,rectangle,10,10,1,0,0,6,1,"[61,91,176,68,219,233,89,169,14,258,127,84,152,289,94,136,99,154,287,282]",10,10,1,0,0,0,201,38,38,160,1,,,,,,,,,,,,,,,,,,,,,
,,,,,,,,,,,,,,,,,,,,,,,,,,,,,,,,,,,,,,,,,,,5f514e2a5552dd37bc2060f3,5fb5d986fb12541d19833626,2020-11-19_02h34.00.585,Colour_Similarity_Experiment,2020.1.2,Win32,60,5fb5945709dec70f2d595766,,,,,,,,,,,,,,,,,,,,PF,,,,,,,,7,0.84501,,,,,,,,,,,,,,,,,,,,,,,,,,,,6,36,54,1,0,0,response1disk,8,11,4,1,0,0,rectangle,11,4,1,0,0,6,4,"[61,91,176,68,219,233,89,169,14,258,127,84,152,289,94,136,99,154,287,282]",11,4,1,0,0,0,202,39,39,64,1,,,,,,,,,,,,,,,,,,,,,
,,,,,,,,,,,,,,,,,,,,,,,,,,,,,,,,,,,,,,,,,,,5f514e2a5552dd37bc2060f3,5fb5d986fb12541d19833626,2020-11-19_02h34.00.585,Colour_Similarity_Experiment,2020.1.2,Win32,60,5fb5945709dec70f2d595766,,,,,,,,,,,,,,,,,,,,PF,,,,,,,,7,0.819825,,,,,,,,,,,,,,,,,,,,,,,,,,,,8,24,45,1,0,0,response1disk,4,0,3,1,0,0,rectangle,0,3,1,0,0,6,6,"[61,91,176,68,219,233,89,169,14,258,127,84,152,289,94,136,99,154,287,282]",0,3,1,0,0,0,203,40,40,78,1,,,,,,,,,,,,,,,,,,,,,
,,,,,,,,,,,,,,,,,,,,,,,,,,,,,,,,,,,,,,,,,,,5f514e2a5552dd37bc2060f3,5fb5d986fb12541d19833626,2020-11-19_02h34.00.585,Colour_Similarity_Experiment,2020.1.2,Win32,60,5fb5945709dec70f2d595766,,,,,,,,,,,,,,,,,,,,PF,,,,,,,,7,0.862795,,,,,,,,,,,,,,,,,,,,,,,,,,,,5,21,53,1,0,0,response1disk,7,3,11,1,0,0,rectangle,3,11,1,0,0,6,7,"[61,91,176,68,219,233,89,169,14,258,127,84,152,289,94,136,99,154,287,282]",3,11,1,0,0,0,204,41,41,146,1,,,,,,,,,,,,,,,,,,,,,
,,,,,,,,,,,,,,,,,,,,,,,,,,,,,,,,,,,,,,,,,,,5f514e2a5552dd37bc2060f3,5fb5d986fb12541d19833626,2020-11-19_02h34.00.585,Colour_Similarity_Experiment,2020.1.2,Win32,60,5fb5945709dec70f2d595766,,,,,,,,,,,,,,,,,,,,PF,,,,,,,,7,0.8517,,,,,,,,,,,,,,,,,,,,,,,,,,,,3,24,50,1,0,0,response1disk,6,7,-4,1,0,0,rectangle,7,-4,1,0,0,6,0,"[61,91,176,68,219,233,89,169,14,258,127,84,152,289,94,136,99,154,287,282]",7,-4,1,0,0,0,205,42,42,47,1,,,,,,,,,,,,,,,,,,,,,
,,,,,,,,,,,,,,,,,,,,,,,,,,,,,,,,,,,,,,,,,,,5f514e2a5552dd37bc2060f3,5fb5d986fb12541d19833626,2020-11-19_02h34.00.585,Colour_Similarity_Experiment,2020.1.2,Win32,60,5fb5945709dec70f2d595766,,,,,,,,,,,,,,,,,,,,FF,,,,,,,,7,0.866955,,,,,,,,,,,,,,,,,,,,,,,,,,,,4,23,42,1,0,0,response1disk,7,4,9,1,0,0,rectangle,4,9,1,0,0,6,2,"[61,91,176,68,219,233,89,169,14,258,127,84,152,289,94,136,99,154,287,282]",4,9,1,0,0,0,206,43,43,87,1,,,,,,,,,,,,,,,,,,,,,
