key_resp.keys,key_resp.rt,key_resp_16.keys,key_resp_16.rt,key_resp_2.keys,key_resp_2.rt,X Scale,ratio_pxpermm,screen_size_x,screen_size_y,testsize,key_resp_3.keys,key_resp_3.rt,key_resp_4.keys,key_resp_4.rt,line_size,key_resp_5.keys,key_resp_5.rt,key_resp_6.keys,key_resp_6.rt,key_resp_8.keys,key_resp_8.rt,key_resp_7.keys,key_resp_7.rt,key_resp_12.keys,key_resp_12.rt,key_resp_11.keys,key_resp_11.rt,key_resp_18.keys,key_resp_18.rt,key_resp_21.keys,key_resp_21.rt,key_resp_13.keys,key_resp_13.rt,key_resp_19.keys,key_resp_19.rt,ballposx,viewer_distance,trials.thisRepN,trials.thisTrialN,trials.thisN,trials.thisIndex,trials.ran,participant,session,date,expName,psychopyVersion,OS,frameRate,study_id,viewerdistancecm,DVA_to_distance,radius_F,radius_P,r_F,R_P,key_resp_20.keys,key_resp_20.rt,key_resp_14.keys,key_resp_14.rt,key_resp_15.keys,key_resp_15.rt,key_resp_17.keys,key_resp_17.rt,key_resp_9.keys,key_resp_9.rt,key_resp_10.keys,key_resp_10.rt,Colour_1,Ecc,mouse_5.x,mouse_5.y,mouse_5.leftButton,mouse_5.midButton,mouse_5.rightButton,mouse_5.clicked_name,Colour_2,similarity,response_time,mouse_10.x,mouse_10.y,mouse_10.leftButton,mouse_10.midButton,mouse_10.rightButton,mouse_10.clicked_name,mouse_7.x,mouse_7.y,mouse_7.leftButton,mouse_7.midButton,mouse_7.rightButton,catchnumberprac,mouse_6.x,mouse_6.y,mouse_6.leftButton,mouse_6.midButton,mouse_6.rightButton,duringprac.thisRepN,duringprac.thisTrialN,duringprac.thisN,duringprac.thisIndex,duringprac.ran,mouse_7.clicked_name,mouse_6.clicked_name,key_resp_22.keys,key_resp_22.rt,Colour1,mouse.x,mouse.y,mouse.leftButton,mouse.midButton,mouse.rightButton,mouse.clicked_name,Colour2,mouse_2.x,mouse_2.y,mouse_2.leftButton,mouse_2.midButton,mouse_2.rightButton,mouse_2.clicked_name,mouse_3.x,mouse_3.y,mouse_3.leftButton,mouse_3.midButton,mouse_3.rightButton,catchresponse,catchnumber,catchtrialorder,mouse_11.x,mouse_11.y,mouse_11.leftButton,mouse_11.midButton,mouse_11.rightButton,trials_2.thisRepN,trialnumber,trials_2.thisTrialN,trials_2.thisN,trials_2.thisIndex,trials_2.ran,mouse_3.clicked_name,mouse_11.clicked_name,trials_3.thisRepN,trials_3.thisTrialN,trials_3.thisN,trials_3.thisIndex,trials_3.ran,answer1,rt1,answer2,rt2,answer3,rt3,answer4,rt4,answer5,rt5,answer6,rt6,answer7,rt7
space,7.175545,space,18.1101,space,9.291775,44.5,4.45,306.9662921,172.5842697,1366,space,45.159915,space,24.54907,89,space,75.849035,space,4.91692,space,2.04047,space,4.55222,space,9.009975,space,10.456545,space,10.583025,space,17.385555,space,46.026685,return,5.88196,-200.802,699.398084,0,0,0,0,1,5f813d7e8973881f63254341,5fb5daaf5aa8461d3c2fd7a3,2020-11-18_23h40.09.657,Colour_Similarity_Experiment,2020.1.2,Win32,60,5fb5945709dec70f2d595766,,,,,,,,,,,,,,,,,,,,,,,,,,,,,,,,,,,,,,,,,,,,,,,,,,,,,,,,,,,,,,,,,,,,,,,,,,,,,,,,,,,,,,,,,,,,,,,,,,,,,,,,,,,,,
,,,,,,,,,,,,,,,,,,,,,,,,,,,,,,,,,,return,5.1664,-114.744,618.8458367,1,0,1,0,1,5f813d7e8973881f63254341,5fb5daaf5aa8461d3c2fd7a3,2020-11-18_23h40.09.657,Colour_Similarity_Experiment,2020.1.2,Win32,60,5fb5945709dec70f2d595766,,,,,,,,,,,,,,,,,,,,,,,,,,,,,,,,,,,,,,,,,,,,,,,,,,,,,,,,,,,,,,,,,,,,,,,,,,,,,,,,,,,,,,,,,,,,,,,,,,,,,,,,,,,,,
,,,,,,,,,,,,,,,,,,,,,,,,,,,,,,,,,,return,5.02028,-94.254,599.6667302,2,0,2,0,1,5f813d7e8973881f63254341,5fb5daaf5aa8461d3c2fd7a3,2020-11-18_23h40.09.657,Colour_Similarity_Experiment,2020.1.2,Win32,60,5fb5945709dec70f2d595766,,,,,,,,,,,,,,,,,,,,,,,,,,,,,,,,,,,,,,,,,,,,,,,,,,,,,,,,,,,,,,,,,,,,,,,,,,,,,,,,,,,,,,,,,,,,,,,,,,,,,,,,,,,,,
,,,,,,,,,,,,,,,,,,,,,,,,,,,,,,,,,,return,5.174105,-118.842,622.681658,3,0,3,0,1,5f813d7e8973881f63254341,5fb5daaf5aa8461d3c2fd7a3,2020-11-18_23h40.09.657,Colour_Similarity_Experiment,2020.1.2,Win32,60,5fb5945709dec70f2d595766,,,,,,,,,,,,,,,,,,,,,,,,,,,,,,,,,,,,,,,,,,,,,,,,,,,,,,,,,,,,,,,,,,,,,,,,,,,,,,,,,,,,,,,,,,,,,,,,,,,,,,,,,,,,,
,,,,,,,,,,,,,,,,,,,,,,,,,,,,,,,,,,return,5.03848,-100.401,605.4204621,4,0,4,0,1,5f813d7e8973881f63254341,5fb5daaf5aa8461d3c2fd7a3,2020-11-18_23h40.09.657,Colour_Similarity_Experiment,2020.1.2,Win32,60,5fb5945709dec70f2d595766,,,,,,,,,,,,,,,,,,,,,,,,,,,,,,,,,,,,,,,,,,,,,,,,,,,,,,,,,,,,,,,,,,,,,,,,,,,,,,,,,,,,,,,,,,,,,,,,,,,,,,,,,,,,,
,,,,,,,,,,,,,,,,,,,,,,,,,,,,,,,,,,,,,,,,,,,5f813d7e8973881f63254341,5fb5daaf5aa8461d3c2fd7a3,2020-11-18_23h40.09.657,Colour_Similarity_Experiment,2020.1.2,Win32,60,5fb5945709dec70f2d595766,63,10.99668697,73.40288554,489.3525703,48.93525703,220.2086566,space,4.51732,space,7.603115,space,46.571595,space,17.862405,space,9.56335,space,8.37837,1,PF,63,-26,1,0,0,response3disk_5,6,5,15.231175,-7,-4,1,0,0,rectangle_8,-7,-4,1,0,0,2,-7,-4,1,0,0,0,0,0,4,1,,,,,,,,,,,,,,,,,,,,,,,,,,,,,,,,,,,,,,,,,,,,,,,,,,,,,,,,,,
,,,,,,,,,,,,,,,,,,,,,,,,,,,,,,,,,,,,,,,,,,,5f813d7e8973881f63254341,5fb5daaf5aa8461d3c2fd7a3,2020-11-18_23h40.09.657,Colour_Similarity_Experiment,2020.1.2,Win32,60,5fb5945709dec70f2d595766,,,,,,,,,,,,,,,,,,,9,PF,79,-33,1,0,0,response3disk_5,3,5,5.6798,-4,-2,1,0,0,rectangle_8,-4,-2,1,0,0,2,-4,-2,1,0,0,0,1,1,1,1,,,,,,,,,,,,,,,,,,,,,,,,,,,,,,,,,,,,,,,,,,,,,,,,,,,,,,,,,,
,,,,,,,,,,,,,,,,,,,,,,,,,,,,,,,,,,,,,,,,,,,5f813d7e8973881f63254341,5fb5daaf5aa8461d3c2fd7a3,2020-11-18_23h40.09.657,Colour_Similarity_Experiment,2020.1.2,Win32,60,5fb5945709dec70f2d595766,,,,,,,,,,,,,,,,,,,6,PF,-40,-74,1,0,0,response5disk_5,4,3,6.20957,-4,-7,1,0,0,rectangle_8,-84,-36,1,0,0,2,-10,-4,1,0,0,0,2,2,2,1,response5disk_7,rectangle_4,,,,,,,,,,,,,,,,,,,,,,,,,,,,,,,,,,,,,,,,,,,,,,,,,,,,,,,,
,,,,,,,,,,,,,,,,,,,,,,,,,,,,,,,,,,,,,,,,,,,5f813d7e8973881f63254341,5fb5daaf5aa8461d3c2fd7a3,2020-11-18_23h40.09.657,Colour_Similarity_Experiment,2020.1.2,Win32,60,5fb5945709dec70f2d595766,,,,,,,,,,,,,,,,,,,4,FF,-50,-71,1,0,0,response5disk_5,7,3,4.89703,5,-2,1,0,0,rectangle_8,5,-2,1,0,0,2,5,-2,1,0,0,0,3,3,5,1,,,,,,,,,,,,,,,,,,,,,,,,,,,,,,,,,,,,,,,,,,,,,,,,,,,,,,,,,,
,,,,,,,,,,,,,,,,,,,,,,,,,,,,,,,,,,,,,,,,,,,5f813d7e8973881f63254341,5fb5daaf5aa8461d3c2fd7a3,2020-11-18_23h40.09.657,Colour_Similarity_Experiment,2020.1.2,Win32,60,5fb5945709dec70f2d595766,,,,,,,,,,,,,,,,,,,1,PF,-35,-68,1,0,0,response5disk_5,8,3,5.46124,0,-7,1,0,0,rectangle_8,0,-7,1,0,0,2,0,-7,1,0,0,0,4,4,6,1,,,,,,,,,,,,,,,,,,,,,,,,,,,,,,,,,,,,,,,,,,,,,,,,,,,,,,,,,,
,,,,,,,,,,,,,,,,,,,,,,,,,,,,,,,,,,,,,,,,,,,5f813d7e8973881f63254341,5fb5daaf5aa8461d3c2fd7a3,2020-11-18_23h40.09.657,Colour_Similarity_Experiment,2020.1.2,Win32,60,5fb5945709dec70f2d595766,,,,,,,,,,,,,,,,,,,1,FF,-31,-60,1,0,0,response5disk_5,7,3,3.554865,-2,-2,1,0,0,rectangle_8,-82,-53,1,0,0,2,-13,-2,1,0,0,0,5,5,0,1,response5disk_7,rectangle_4,,,,,,,,,,,,,,,,,,,,,,,,,,,,,,,,,,,,,,,,,,,,,,,,,,,,,,,,
,,,,,,,,,,,,,,,,,,,,,,,,,,,,,,,,,,,,,,,,,,,5f813d7e8973881f63254341,5fb5daaf5aa8461d3c2fd7a3,2020-11-18_23h40.09.657,Colour_Similarity_Experiment,2020.1.2,Win32,60,5fb5945709dec70f2d595766,,,,,,,,,,,,,,,,,,,4,FF,91,36,1,0,0,response1disk_5,8,6,16.02689,10,-6,1,0,0,rectangle_8,10,-6,1,0,0,2,10,-6,1,0,0,0,6,6,3,1,,,,,,,,,,,,,,,,,,,,,,,,,,,,,,,,,,,,,,,,,,,,,,,,,,,,,,,,,,
,,,,,,,,,,,,,,,,,,,,,,,,,,,,,,,,,,,,,,,,,,,5f813d7e8973881f63254341,5fb5daaf5aa8461d3c2fd7a3,2020-11-18_23h40.09.657,Colour_Similarity_Experiment,2020.1.2,Win32,60,5fb5945709dec70f2d595766,,,,,,,,,,,,,,,,,,,,PF,,,,,,,,3,9.8364,,,,,,,,,,,,,,,,,,,,,,,,,space,31.57956,4,-35,-73,1,0,0,response5disk,5,3,-7,1,0,0,rectangle,3,-7,1,0,0,,4,"[68,38,37,321,25,250,73,77,243,188,249,296,11,223,252,46,316,130,161,288]",3,-7,1,0,0,0,1,0,0,49,1,,,,,,,,,,,,,,,,,,,,,
,,,,,,,,,,,,,,,,,,,,,,,,,,,,,,,,,,,,,,,,,,,5f813d7e8973881f63254341,5fb5daaf5aa8461d3c2fd7a3,2020-11-18_23h40.09.657,Colour_Similarity_Experiment,2020.1.2,Win32,60,5fb5945709dec70f2d595766,,,,,,,,,,,,,,,,,,,,PF,,,,,,,,5,9.948655,,,,,,,,,,,,,,,,,,,,,,,,,,,1,93,-50,1,0,0,response3disk,5,12,-6,1,0,0,rectangle,12,-6,1,0,0,,0,"[68,38,37,321,25,250,73,77,243,188,249,296,11,223,252,46,316,130,161,288]",12,-6,1,0,0,0,2,1,1,28,1,,,,,,,,,,,,,,,,,,,,,
,,,,,,,,,,,,,,,,,,,,,,,,,,,,,,,,,,,,,,,,,,,5f813d7e8973881f63254341,5fb5daaf5aa8461d3c2fd7a3,2020-11-18_23h40.09.657,Colour_Similarity_Experiment,2020.1.2,Win32,60,5fb5945709dec70f2d595766,,,,,,,,,,,,,,,,,,,,PF,,,,,,,,2,5.0297,,,,,,,,,,,,,,,,,,,,,,,,,,,3,-70,-37,1,0,0,response5disk,2,-7,-1,1,0,0,rectangle,-7,-1,1,0,0,,2,"[68,38,37,321,25,250,73,77,243,188,249,296,11,223,252,46,316,130,161,288]",-7,-1,1,0,0,0,3,2,2,36,1,,,,,,,,,,,,,,,,,,,,,
,,,,,,,,,,,,,,,,,,,,,,,,,,,,,,,,,,,,,,,,,,,5f813d7e8973881f63254341,5fb5daaf5aa8461d3c2fd7a3,2020-11-18_23h40.09.657,Colour_Similarity_Experiment,2020.1.2,Win32,60,5fb5945709dec70f2d595766,,,,,,,,,,,,,,,,,,,,PF,,,,,,,,2,12.85048,,,,,,,,,,,,,,,,,,,,,,,,,,,9,-87,-39,1,0,0,response5disk,1,-7,-3,1,0,0,rectangle,-7,-3,1,0,0,,4,"[68,38,37,321,25,250,73,77,243,188,249,296,11,223,252,46,316,130,161,288]",-7,-3,1,0,0,0,4,3,3,74,1,,,,,,,,,,,,,,,,,,,,,
,,,,,,,,,,,,,,,,,,,,,,,,,,,,,,,,,,,,,,,,,,,5f813d7e8973881f63254341,5fb5daaf5aa8461d3c2fd7a3,2020-11-18_23h40.09.657,Colour_Similarity_Experiment,2020.1.2,Win32,60,5fb5945709dec70f2d595766,,,,,,,,,,,,,,,,,,,,PF,,,,,,,,6,3.307675,,,,,,,,,,,,,,,,,,,,,,,,,,,3,87,34,1,0,0,response1disk,5,-6,-3,1,0,0,rectangle,-6,-3,1,0,0,,4,"[68,38,37,321,25,250,73,77,243,188,249,296,11,223,252,46,316,130,161,288]",-6,-3,1,0,0,0,5,4,4,66,1,,,,,,,,,,,,,,,,,,,,,
,,,,,,,,,,,,,,,,,,,,,,,,,,,,,,,,,,,,,,,,,,,5f813d7e8973881f63254341,5fb5daaf5aa8461d3c2fd7a3,2020-11-18_23h40.09.657,Colour_Similarity_Experiment,2020.1.2,Win32,60,5fb5945709dec70f2d595766,,,,,,,,,,,,,,,,,,,,PF,,,,,,,,6,4.05043,,,,,,,,,,,,,,,,,,,,,,,,,,,8,72,27,1,0,0,response1disk,2,-3,-3,1,0,0,rectangle,-3,-3,1,0,0,,4,"[68,38,37,321,25,250,73,77,243,188,249,296,11,223,252,46,316,130,161,288]",-3,-3,1,0,0,0,6,5,5,83,1,,,,,,,,,,,,,,,,,,,,,
,,,,,,,,,,,,,,,,,,,,,,,,,,,,,,,,,,,,,,,,,,,5f813d7e8973881f63254341,5fb5daaf5aa8461d3c2fd7a3,2020-11-18_23h40.09.657,Colour_Similarity_Experiment,2020.1.2,Win32,60,5fb5945709dec70f2d595766,,,,,,,,,,,,,,,,,,,,PF,,,,,,,,0,7.801715,,,,,,,,,,,,,,,,,,,,,,,,,,,9,-39,72,1,0,0,response7disk,9,4,3,1,0,0,rectangle,4,3,1,0,0,,6,"[68,38,37,321,25,250,73,77,243,188,249,296,11,223,252,46,316,130,161,288]",4,3,1,0,0,0,7,6,6,106,1,,,,,,,,,,,,,,,,,,,,,
,,,,,,,,,,,,,,,,,,,,,,,,,,,,,,,,,,,,,,,,,,,5f813d7e8973881f63254341,5fb5daaf5aa8461d3c2fd7a3,2020-11-18_23h40.09.657,Colour_Similarity_Experiment,2020.1.2,Win32,60,5fb5945709dec70f2d595766,,,,,,,,,,,,,,,,,,,,FF,,,,,,,,0,2.72595,,,,,,,,,,,,,,,,,,,,,,,,,,,4,-44,91,1,0,0,response7disk,4,2,6,1,0,0,rectangle,2,6,1,0,0,,0,"[68,38,37,321,25,250,73,77,243,188,249,296,11,223,252,46,316,130,161,288]",2,6,1,0,0,0,8,7,7,84,1,,,,,,,,,,,,,,,,,,,,,
,,,,,,,,,,,,,,,,,,,,,,,,,,,,,,,,,,,,,,,,,,,5f813d7e8973881f63254341,5fb5daaf5aa8461d3c2fd7a3,2020-11-18_23h40.09.657,Colour_Similarity_Experiment,2020.1.2,Win32,60,5fb5945709dec70f2d595766,,,,,,,,,,,,,,,,,,,,PF,,,,,,,,2,4.99721,,,,,,,,,,,,,,,,,,,,,,,,,,,2,-85,-24,1,0,0,response5disk,3,-3,-6,1,0,0,rectangle,-3,-6,1,0,0,,0,"[68,38,37,321,25,250,73,77,243,188,249,296,11,223,252,46,316,130,161,288]",-3,-6,1,0,0,0,9,8,8,69,1,,,,,,,,,,,,,,,,,,,,,
,,,,,,,,,,,,,,,,,,,,,,,,,,,,,,,,,,,,,,,,,,,5f813d7e8973881f63254341,5fb5daaf5aa8461d3c2fd7a3,2020-11-18_23h40.09.657,Colour_Similarity_Experiment,2020.1.2,Win32,60,5fb5945709dec70f2d595766,,,,,,,,,,,,,,,,,,,,FF,,,,,,,,5,4.79494,,,,,,,,,,,,,,,,,,,,,,,,,,,7,83,-39,1,0,0,response3disk,2,-6,5,1,0,0,rectangle,-6,5,1,0,0,,2,"[68,38,37,321,25,250,73,77,243,188,249,296,11,223,252,46,316,130,161,288]",-6,5,1,0,0,0,10,9,9,138,1,,,,,,,,,,,,,,,,,,,,,
,,,,,,,,,,,,,,,,,,,,,,,,,,,,,,,,,,,,,,,,,,,5f813d7e8973881f63254341,5fb5daaf5aa8461d3c2fd7a3,2020-11-18_23h40.09.657,Colour_Similarity_Experiment,2020.1.2,Win32,60,5fb5945709dec70f2d595766,,,,,,,,,,,,,,,,,,,,FF,,,,,,,,2,4.1613,,,,,,,,,,,,,,,,,,,,,,,,,,,2,-63,-30,1,0,0,response5disk,3,-5,1,1,0,0,rectangle,29,87,1,0,0,7,7,"[68,38,37,321,25,250,73,77,243,188,249,296,11,223,252,46,316,130,161,288]",-4,2,1,0,0,0,11,10,10,104,1,response1disk_3,rectangle,,,,,,,,,,,,,,,,,,,
,,,,,,,,,,,,,,,,,,,,,,,,,,,,,,,,,,,,,,,,,,,5f813d7e8973881f63254341,5fb5daaf5aa8461d3c2fd7a3,2020-11-18_23h40.09.657,Colour_Similarity_Experiment,2020.1.2,Win32,60,5fb5945709dec70f2d595766,,,,,,,,,,,,,,,,,,,,PF,,,,,,,,0,4.0209,,,,,,,,,,,,,,,,,,,,,,,,,,,8,-37,72,1,0,0,response7disk,8,4,1,1,0,0,rectangle,4,1,1,0,0,7,3,"[68,38,37,321,25,250,73,77,243,188,249,296,11,223,252,46,316,130,161,288]",4,1,1,0,0,0,12,11,11,153,1,,,,,,,,,,,,,,,,,,,,,
,,,,,,,,,,,,,,,,,,,,,,,,,,,,,,,,,,,,,,,,,,,5f813d7e8973881f63254341,5fb5daaf5aa8461d3c2fd7a3,2020-11-18_23h40.09.657,Colour_Similarity_Experiment,2020.1.2,Win32,60,5fb5945709dec70f2d595766,,,,,,,,,,,,,,,,,,,,PF,,,,,,,,5,9.057835,,,,,,,,,,,,,,,,,,,,,,,,,,,7,84,-32,1,0,0,response3disk,3,-5,9,1,0,0,rectangle,-5,9,1,0,0,7,4,"[68,38,37,321,25,250,73,77,243,188,249,296,11,223,252,46,316,130,161,288]",-5,9,1,0,0,0,13,12,12,81,1,,,,,,,,,,,,,,,,,,,,,
,,,,,,,,,,,,,,,,,,,,,,,,,,,,,,,,,,,,,,,,,,,5f813d7e8973881f63254341,5fb5daaf5aa8461d3c2fd7a3,2020-11-18_23h40.09.657,Colour_Similarity_Experiment,2020.1.2,Win32,60,5fb5945709dec70f2d595766,,,,,,,,,,,,,,,,,,,,FF,,,,,,,,6,8.442035,,,,,,,,,,,,,,,,,,,,,,,,,,,9,79,39,1,0,0,response1disk,3,14,6,1,0,0,rectangle,14,6,1,0,0,7,6,"[68,38,37,321,25,250,73,77,243,188,249,296,11,223,252,46,316,130,161,288]",14,6,1,0,0,0,14,13,13,141,1,,,,,,,,,,,,,,,,,,,,,
,,,,,,,,,,,,,,,,,,,,,,,,,,,,,,,,,,,,,,,,,,,5f813d7e8973881f63254341,5fb5daaf5aa8461d3c2fd7a3,2020-11-18_23h40.09.657,Colour_Similarity_Experiment,2020.1.2,Win32,60,5fb5945709dec70f2d595766,,,,,,,,,,,,,,,,,,,,PF,,,,,,,,1,3.008185,,,,,,,,,,,,,,,,,,,,,,,,,,,8,-75,40,1,0,0,response7disk,9,-15,7,1,0,0,rectangle,-15,7,1,0,0,7,6,"[68,38,37,321,25,250,73,77,243,188,249,296,11,223,252,46,316,130,161,288]",-15,7,1,0,0,0,15,14,14,42,1,,,,,,,,,,,,,,,,,,,,,
,,,,,,,,,,,,,,,,,,,,,,,,,,,,,,,,,,,,,,,,,,,5f813d7e8973881f63254341,5fb5daaf5aa8461d3c2fd7a3,2020-11-18_23h40.09.657,Colour_Similarity_Experiment,2020.1.2,Win32,60,5fb5945709dec70f2d595766,,,,,,,,,,,,,,,,,,,,PF,,,,,,,,5,7.418885,,,,,,,,,,,,,,,,,,,,,,,,,,,8,71,-59,1,0,0,response3disk,4,2,3,1,0,0,rectangle,2,3,1,0,0,7,3,"[68,38,37,321,25,250,73,77,243,188,249,296,11,223,252,46,316,130,161,288]",2,3,1,0,0,0,16,15,15,78,1,,,,,,,,,,,,,,,,,,,,,
,,,,,,,,,,,,,,,,,,,,,,,,,,,,,,,,,,,,,,,,,,,5f813d7e8973881f63254341,5fb5daaf5aa8461d3c2fd7a3,2020-11-18_23h40.09.657,Colour_Similarity_Experiment,2020.1.2,Win32,60,5fb5945709dec70f2d595766,,,,,,,,,,,,,,,,,,,,FF,,,,,,,,5,2.366585,,,,,,,,,,,,,,,,,,,,,,,,,,,2,70,-23,1,0,0,response3disk,5,-1,6,1,0,0,rectangle,-1,6,1,0,0,7,4,"[68,38,37,321,25,250,73,77,243,188,249,296,11,223,252,46,316,130,161,288]",-1,6,1,0,0,0,17,16,16,80,1,,,,,,,,,,,,,,,,,,,,,
,,,,,,,,,,,,,,,,,,,,,,,,,,,,,,,,,,,,,,,,,,,5f813d7e8973881f63254341,5fb5daaf5aa8461d3c2fd7a3,2020-11-18_23h40.09.657,Colour_Similarity_Experiment,2020.1.2,Win32,60,5fb5945709dec70f2d595766,,,,,,,,,,,,,,,,,,,,FF,,,,,,,,3,4.750585,,,,,,,,,,,,,,,,,,,,,,,,,,,3,-30,-76,1,0,0,response5disk,5,-3,-1,1,0,0,rectangle,-3,-1,1,0,0,7,2,"[68,38,37,321,25,250,73,77,243,188,249,296,11,223,252,46,316,130,161,288]",-3,-1,1,0,0,0,18,17,17,101,1,,,,,,,,,,,,,,,,,,,,,
,,,,,,,,,,,,,,,,,,,,,,,,,,,,,,,,,,,,,,,,,,,5f813d7e8973881f63254341,5fb5daaf5aa8461d3c2fd7a3,2020-11-18_23h40.09.657,Colour_Similarity_Experiment,2020.1.2,Win32,60,5fb5945709dec70f2d595766,,,,,,,,,,,,,,,,,,,,PF,,,,,,,,0,1.937095,,,,,,,,,,,,,,,,,,,,,,,,,,,3,-30,81,1,0,0,response7disk,3,2,4,1,0,0,rectangle,2,4,1,0,0,7,5,"[68,38,37,321,25,250,73,77,243,188,249,296,11,223,252,46,316,130,161,288]",2,4,1,0,0,0,19,18,18,4,1,,,,,,,,,,,,,,,,,,,,,
,,,,,,,,,,,,,,,,,,,,,,,,,,,,,,,,,,,,,,,,,,,5f813d7e8973881f63254341,5fb5daaf5aa8461d3c2fd7a3,2020-11-18_23h40.09.657,Colour_Similarity_Experiment,2020.1.2,Win32,60,5fb5945709dec70f2d595766,,,,,,,,,,,,,,,,,,,,PF,,,,,,,,6,2.38274,,,,,,,,,,,,,,,,,,,,,,,,,,,8,68,31,1,0,0,response1disk,3,-11,1,1,0,0,rectangle,-11,1,1,0,0,7,3,"[68,38,37,321,25,250,73,77,243,188,249,296,11,223,252,46,316,130,161,288]",-11,1,1,0,0,0,20,19,19,71,1,,,,,,,,,,,,,,,,,,,,,
,,,,,,,,,,,,,,,,,,,,,,,,,,,,,,,,,,,,,,,,,,,5f813d7e8973881f63254341,5fb5daaf5aa8461d3c2fd7a3,2020-11-18_23h40.09.657,Colour_Similarity_Experiment,2020.1.2,Win32,60,5fb5945709dec70f2d595766,,,,,,,,,,,,,,,,,,,,FF,,,,,,,,0,1.67555,,,,,,,,,,,,,,,,,,,,,,,,,,,3,-25,64,1,0,0,response7disk,3,2,10,1,0,0,rectangle,2,10,1,0,0,7,3,"[68,38,37,321,25,250,73,77,243,188,249,296,11,223,252,46,316,130,161,288]",2,10,1,0,0,0,21,20,20,68,1,,,,,,,,,,,,,,,,,,,,,
,,,,,,,,,,,,,,,,,,,,,,,,,,,,,,,,,,,,,,,,,,,5f813d7e8973881f63254341,5fb5daaf5aa8461d3c2fd7a3,2020-11-18_23h40.09.657,Colour_Similarity_Experiment,2020.1.2,Win32,60,5fb5945709dec70f2d595766,,,,,,,,,,,,,,,,,,,,FF,,,,,,,,2,3.109795,,,,,,,,,,,,,,,,,,,,,,,,,,,8,-93,-34,1,0,0,response5disk,6,-2,-6,1,0,0,rectangle,-2,-6,1,0,0,7,1,"[68,38,37,321,25,250,73,77,243,188,249,296,11,223,252,46,316,130,161,288]",-2,-6,1,0,0,0,22,21,21,37,1,,,,,,,,,,,,,,,,,,,,,
,,,,,,,,,,,,,,,,,,,,,,,,,,,,,,,,,,,,,,,,,,,5f813d7e8973881f63254341,5fb5daaf5aa8461d3c2fd7a3,2020-11-18_23h40.09.657,Colour_Similarity_Experiment,2020.1.2,Win32,60,5fb5945709dec70f2d595766,,,,,,,,,,,,,,,,,,,,FF,,,,,,,,2,2.78057,,,,,,,,,,,,,,,,,,,,,,,,,,,4,-85,-20,1,0,0,response5disk,3,5,-4,1,0,0,rectangle,5,-4,1,0,0,7,7,"[68,38,37,321,25,250,73,77,243,188,249,296,11,223,252,46,316,130,161,288]",5,-4,1,0,0,0,23,22,22,77,1,,,,,,,,,,,,,,,,,,,,,
,,,,,,,,,,,,,,,,,,,,,,,,,,,,,,,,,,,,,,,,,,,5f813d7e8973881f63254341,5fb5daaf5aa8461d3c2fd7a3,2020-11-18_23h40.09.657,Colour_Similarity_Experiment,2020.1.2,Win32,60,5fb5945709dec70f2d595766,,,,,,,,,,,,,,,,,,,,FF,,,,,,,,5,5.19747,,,,,,,,,,,,,,,,,,,,,,,,,,,4,61,-29,1,0,0,response3disk,8,4,3,1,0,0,rectangle,4,3,1,0,0,7,6,"[68,38,37,321,25,250,73,77,243,188,249,296,11,223,252,46,316,130,161,288]",4,3,1,0,0,0,24,23,23,35,1,,,,,,,,,,,,,,,,,,,,,
,,,,,,,,,,,,,,,,,,,,,,,,,,,,,,,,,,,,,,,,,,,5f813d7e8973881f63254341,5fb5daaf5aa8461d3c2fd7a3,2020-11-18_23h40.09.657,Colour_Similarity_Experiment,2020.1.2,Win32,60,5fb5945709dec70f2d595766,,,,,,,,,,,,,,,,,,,,PF,,,,,,,,1,4.91579,,,,,,,,,,,,,,,,,,,,,,,,,,,8,-93,51,1,0,0,response7disk,7,-5,4,1,0,0,rectangle,33,-101,1,0,0,4,4,"[68,38,37,321,25,250,73,77,243,188,249,296,11,223,252,46,316,130,161,288]",0,0,1,0,0,0,25,24,24,23,1,response3disk_3,rectangle,,,,,,,,,,,,,,,,,,,
,,,,,,,,,,,,,,,,,,,,,,,,,,,,,,,,,,,,,,,,,,,5f813d7e8973881f63254341,5fb5daaf5aa8461d3c2fd7a3,2020-11-18_23h40.09.657,Colour_Similarity_Experiment,2020.1.2,Win32,60,5fb5945709dec70f2d595766,,,,,,,,,,,,,,,,,,,,FF,,,,,,,,5,10.076235,,,,,,,,,,,,,,,,,,,,,,,,,,,5,80,-67,1,0,0,response3disk,8,-16,0,1,0,0,rectangle,-16,0,1,0,0,4,2,"[68,38,37,321,25,250,73,77,243,188,249,296,11,223,252,46,316,130,161,288]",-16,0,1,0,0,0,26,25,25,16,1,,,,,,,,,,,,,,,,,,,,,
,,,,,,,,,,,,,,,,,,,,,,,,,,,,,,,,,,,,,,,,,,,5f813d7e8973881f63254341,5fb5daaf5aa8461d3c2fd7a3,2020-11-18_23h40.09.657,Colour_Similarity_Experiment,2020.1.2,Win32,60,5fb5945709dec70f2d595766,,,,,,,,,,,,,,,,,,,,PF,,,,,,,,7,4.849555,,,,,,,,,,,,,,,,,,,,,,,,,,,4,53,80,1,0,0,response1disk,1,-3,6,1,0,0,rectangle,-3,6,1,0,0,4,1,"[68,38,37,321,25,250,73,77,243,188,249,296,11,223,252,46,316,130,161,288]",-3,6,1,0,0,0,27,26,26,115,1,,,,,,,,,,,,,,,,,,,,,
,,,,,,,,,,,,,,,,,,,,,,,,,,,,,,,,,,,,,,,,,,,5f813d7e8973881f63254341,5fb5daaf5aa8461d3c2fd7a3,2020-11-18_23h40.09.657,Colour_Similarity_Experiment,2020.1.2,Win32,60,5fb5945709dec70f2d595766,,,,,,,,,,,,,,,,,,,,FF,,,,,,,,1,4.16197,,,,,,,,,,,,,,,,,,,,,,,,,,,3,-76,33,1,0,0,response7disk,4,-13,2,1,0,0,rectangle,-13,2,1,0,0,4,3,"[68,38,37,321,25,250,73,77,243,188,249,296,11,223,252,46,316,130,161,288]",-13,2,1,0,0,0,28,27,27,110,1,,,,,,,,,,,,,,,,,,,,,
,,,,,,,,,,,,,,,,,,,,,,,,,,,,,,,,,,,,,,,,,,,5f813d7e8973881f63254341,5fb5daaf5aa8461d3c2fd7a3,2020-11-18_23h40.09.657,Colour_Similarity_Experiment,2020.1.2,Win32,60,5fb5945709dec70f2d595766,,,,,,,,,,,,,,,,,,,,PF,,,,,,,,3,2.7117,,,,,,,,,,,,,,,,,,,,,,,,,,,3,-53,-62,1,0,0,response5disk,4,15,9,1,0,0,rectangle,15,9,1,0,0,4,1,"[68,38,37,321,25,250,73,77,243,188,249,296,11,223,252,46,316,130,161,288]",15,9,1,0,0,0,29,28,28,30,1,,,,,,,,,,,,,,,,,,,,,
,,,,,,,,,,,,,,,,,,,,,,,,,,,,,,,,,,,,,,,,,,,5f813d7e8973881f63254341,5fb5daaf5aa8461d3c2fd7a3,2020-11-18_23h40.09.657,Colour_Similarity_Experiment,2020.1.2,Win32,60,5fb5945709dec70f2d595766,,,,,,,,,,,,,,,,,,,,FF,,,,,,,,6,2.589675,,,,,,,,,,,,,,,,,,,,,,,,,,,3,99,36,1,0,0,response1disk,8,0,-1,1,0,0,rectangle,0,-1,1,0,0,4,3,"[68,38,37,321,25,250,73,77,243,188,249,296,11,223,252,46,316,130,161,288]",0,-1,1,0,0,0,30,29,29,44,1,,,,,,,,,,,,,,,,,,,,,
,,,,,,,,,,,,,,,,,,,,,,,,,,,,,,,,,,,,,,,,,,,5f813d7e8973881f63254341,5fb5daaf5aa8461d3c2fd7a3,2020-11-18_23h40.09.657,Colour_Similarity_Experiment,2020.1.2,Win32,60,5fb5945709dec70f2d595766,,,,,,,,,,,,,,,,,,,,PF,,,,,,,,2,2.82498,,,,,,,,,,,,,,,,,,,,,,,,,,,4,-74,-55,1,0,0,response5disk,7,-3,-8,1,0,0,rectangle,-3,-8,1,0,0,4,7,"[68,38,37,321,25,250,73,77,243,188,249,296,11,223,252,46,316,130,161,288]",-3,-8,1,0,0,0,31,30,30,38,1,,,,,,,,,,,,,,,,,,,,,
,,,,,,,,,,,,,,,,,,,,,,,,,,,,,,,,,,,,,,,,,,,5f813d7e8973881f63254341,5fb5daaf5aa8461d3c2fd7a3,2020-11-18_23h40.09.657,Colour_Similarity_Experiment,2020.1.2,Win32,60,5fb5945709dec70f2d595766,,,,,,,,,,,,,,,,,,,,FF,,,,,,,,6,3.512985,,,,,,,,,,,,,,,,,,,,,,,,,,,6,75,30,1,0,0,response1disk,1,0,-1,1,0,0,rectangle,0,-1,1,0,0,4,3,"[68,38,37,321,25,250,73,77,243,188,249,296,11,223,252,46,316,130,161,288]",0,-1,1,0,0,0,32,31,31,5,1,,,,,,,,,,,,,,,,,,,,,
,,,,,,,,,,,,,,,,,,,,,,,,,,,,,,,,,,,,,,,,,,,5f813d7e8973881f63254341,5fb5daaf5aa8461d3c2fd7a3,2020-11-18_23h40.09.657,Colour_Similarity_Experiment,2020.1.2,Win32,60,5fb5945709dec70f2d595766,,,,,,,,,,,,,,,,,,,,FF,,,,,,,,4,3.826885,,,,,,,,,,,,,,,,,,,,,,,,,,,8,34,-66,1,0,0,response3disk,5,-1,-7,1,0,0,rectangle,-1,-7,1,0,0,4,4,"[68,38,37,321,25,250,73,77,243,188,249,296,11,223,252,46,316,130,161,288]",-1,-7,1,0,0,0,33,32,32,152,1,,,,,,,,,,,,,,,,,,,,,
,,,,,,,,,,,,,,,,,,,,,,,,,,,,,,,,,,,,,,,,,,,5f813d7e8973881f63254341,5fb5daaf5aa8461d3c2fd7a3,2020-11-18_23h40.09.657,Colour_Similarity_Experiment,2020.1.2,Win32,60,5fb5945709dec70f2d595766,,,,,,,,,,,,,,,,,,,,FF,,,,,,,,6,3.05151,,,,,,,,,,,,,,,,,,,,,,,,,,,2,84,39,1,0,0,response1disk,8,-1,3,1,0,0,rectangle,-1,3,1,0,0,4,0,"[68,38,37,321,25,250,73,77,243,188,249,296,11,223,252,46,316,130,161,288]",-1,3,1,0,0,0,34,33,33,62,1,,,,,,,,,,,,,,,,,,,,,
,,,,,,,,,,,,,,,,,,,,,,,,,,,,,,,,,,,,,,,,,,,5f813d7e8973881f63254341,5fb5daaf5aa8461d3c2fd7a3,2020-11-18_23h40.09.657,Colour_Similarity_Experiment,2020.1.2,Win32,60,5fb5945709dec70f2d595766,,,,,,,,,,,,,,,,,,,,FF,,,,,,,,2,3.052405,,,,,,,,,,,,,,,,,,,,,,,,,,,1,-62,-38,1,0,0,response5disk,9,8,-4,1,0,0,rectangle,8,-4,1,0,0,4,0,"[68,38,37,321,25,250,73,77,243,188,249,296,11,223,252,46,316,130,161,288]",8,-4,1,0,0,0,35,34,34,123,1,,,,,,,,,,,,,,,,,,,,,
,,,,,,,,,,,,,,,,,,,,,,,,,,,,,,,,,,,,,,,,,,,5f813d7e8973881f63254341,5fb5daaf5aa8461d3c2fd7a3,2020-11-18_23h40.09.657,Colour_Similarity_Experiment,2020.1.2,Win32,60,5fb5945709dec70f2d595766,,,,,,,,,,,,,,,,,,,,FF,,,,,,,,0,1.88787,,,,,,,,,,,,,,,,,,,,,,,,,,,9,-37,62,1,0,0,response7disk,9,-14,9,1,0,0,rectangle,-14,9,1,0,0,4,2,"[68,38,37,321,25,250,73,77,243,188,249,296,11,223,252,46,316,130,161,288]",-14,9,1,0,0,0,36,35,35,17,1,,,,,,,,,,,,,,,,,,,,,
,,,,,,,,,,,,,,,,,,,,,,,,,,,,,,,,,,,,,,,,,,,5f813d7e8973881f63254341,5fb5daaf5aa8461d3c2fd7a3,2020-11-18_23h40.09.657,Colour_Similarity_Experiment,2020.1.2,Win32,60,5fb5945709dec70f2d595766,,,,,,,,,,,,,,,,,,,,PF,,,,,,,,3,2.868595,,,,,,,,,,,,,,,,,,,,,,,,,,,2,-37,-71,1,0,0,response5disk,9,7,9,1,0,0,rectangle,-32,86,1,0,0,0,0,"[68,38,37,321,25,250,73,77,243,188,249,296,11,223,252,46,316,130,161,288]",9,6,1,0,0,0,37,36,36,39,1,response7disk_3,rectangle,,,,,,,,,,,,,,,,,,,
,,,,,,,,,,,,,,,,,,,,,,,,,,,,,,,,,,,,,,,,,,,5f813d7e8973881f63254341,5fb5daaf5aa8461d3c2fd7a3,2020-11-18_23h40.09.657,Colour_Similarity_Experiment,2020.1.2,Win32,60,5fb5945709dec70f2d595766,,,,,,,,,,,,,,,,,,,,FF,,,,,,,,1,3.894545,,,,,,,,,,,,,,,,,,,,,,,,,,,7,-86,28,1,0,0,response7disk,6,-16,-8,1,0,0,rectangle,35,86,1,0,0,7,7,"[68,38,37,321,25,250,73,77,243,188,249,296,11,223,252,46,316,130,161,288]",3,6,1,0,0,0,38,37,37,31,1,response1disk_3,rectangle,,,,,,,,,,,,,,,,,,,
,,,,,,,,,,,,,,,,,,,,,,,,,,,,,,,,,,,,,,,,,,,5f813d7e8973881f63254341,5fb5daaf5aa8461d3c2fd7a3,2020-11-18_23h40.09.657,Colour_Similarity_Experiment,2020.1.2,Win32,60,5fb5945709dec70f2d595766,,,,,,,,,,,,,,,,,,,,FF,,,,,,,,3,3.418545,,,,,,,,,,,,,,,,,,,,,,,,,,,8,-48,-67,1,0,0,response5disk,1,-4,-5,1,0,0,rectangle,-4,-5,1,0,0,7,1,"[68,38,37,321,25,250,73,77,243,188,249,296,11,223,252,46,316,130,161,288]",-4,-5,1,0,0,0,39,38,38,20,1,,,,,,,,,,,,,,,,,,,,,
,,,,,,,,,,,,,,,,,,,,,,,,,,,,,,,,,,,,,,,,,,,5f813d7e8973881f63254341,5fb5daaf5aa8461d3c2fd7a3,2020-11-18_23h40.09.657,Colour_Similarity_Experiment,2020.1.2,Win32,60,5fb5945709dec70f2d595766,,,,,,,,,,,,,,,,,,,,FF,,,,,,,,1,1.832395,,,,,,,,,,,,,,,,,,,,,,,,,,,8,-81,31,1,0,0,response7disk,9,-20,12,1,0,0,rectangle,-20,12,1,0,0,7,7,"[68,38,37,321,25,250,73,77,243,188,249,296,11,223,252,46,316,130,161,288]",-20,12,1,0,0,0,40,39,39,105,1,,,,,,,,,,,,,,,,,,,,,
,,,,,,,,,,,,,,,,,,,,,,,,,,,,,,,,,,,,,,,,,,,5f813d7e8973881f63254341,5fb5daaf5aa8461d3c2fd7a3,2020-11-18_23h40.09.657,Colour_Similarity_Experiment,2020.1.2,Win32,60,5fb5945709dec70f2d595766,,,,,,,,,,,,,,,,,,,,FF,,,,,,,,4,4.70341,,,,,,,,,,,,,,,,,,,,,,,,,,,3,32,-77,1,0,0,response3disk,1,-1,3,1,0,0,rectangle,-1,3,1,0,0,7,5,"[68,38,37,321,25,250,73,77,243,188,249,296,11,223,252,46,316,130,161,288]",-1,3,1,0,0,0,41,40,40,125,1,,,,,,,,,,,,,,,,,,,,,
,,,,,,,,,,,,,,,,,,,,,,,,,,,,,,,,,,,,,,,,,,,5f813d7e8973881f63254341,5fb5daaf5aa8461d3c2fd7a3,2020-11-18_23h40.09.657,Colour_Similarity_Experiment,2020.1.2,Win32,60,5fb5945709dec70f2d595766,,,,,,,,,,,,,,,,,,,,FF,,,,,,,,6,5.7438,,,,,,,,,,,,,,,,,,,,,,,,,,,2,86,41,1,0,0,response1disk,6,2,3,1,0,0,rectangle,2,3,1,0,0,7,0,"[68,38,37,321,25,250,73,77,243,188,249,296,11,223,252,46,316,130,161,288]",2,3,1,0,0,0,42,41,41,40,1,,,,,,,,,,,,,,,,,,,,,
,,,,,,,,,,,,,,,,,,,,,,,,,,,,,,,,,,,,,,,,,,,5f813d7e8973881f63254341,5fb5daaf5aa8461d3c2fd7a3,2020-11-18_23h40.09.657,Colour_Similarity_Experiment,2020.1.2,Win32,60,5fb5945709dec70f2d595766,,,,,,,,,,,,,,,,,,,,PF,,,,,,,,2,1.80845,,,,,,,,,,,,,,,,,,,,,,,,,,,2,-70,-39,1,0,0,response5disk,4,-13,-11,1,0,0,rectangle,-13,-11,1,0,0,7,6,"[68,38,37,321,25,250,73,77,243,188,249,296,11,223,252,46,316,130,161,288]",-13,-11,1,0,0,0,43,42,42,127,1,,,,,,,,,,,,,,,,,,,,,
,,,,,,,,,,,,,,,,,,,,,,,,,,,,,,,,,,,,,,,,,,,5f813d7e8973881f63254341,5fb5daaf5aa8461d3c2fd7a3,2020-11-18_23h40.09.657,Colour_Similarity_Experiment,2020.1.2,Win32,60,5fb5945709dec70f2d595766,,,,,,,,,,,,,,,,,,,,FF,,,,,,,,5,3.04971,,,,,,,,,,,,,,,,,,,,,,,,,,,1,78,-46,1,0,0,response3disk,5,-4,-2,1,0,0,rectangle,-4,-2,1,0,0,7,7,"[68,38,37,321,25,250,73,77,243,188,249,296,11,223,252,46,316,130,161,288]",-4,-2,1,0,0,0,44,43,43,82,1,,,,,,,,,,,,,,,,,,,,,
,,,,,,,,,,,,,,,,,,,,,,,,,,,,,,,,,,,,,,,,,,,5f813d7e8973881f63254341,5fb5daaf5aa8461d3c2fd7a3,2020-11-18_23h40.09.657,Colour_Similarity_Experiment,2020.1.2,Win32,60,5fb5945709dec70f2d595766,,,,,,,,,,,,,,,,,,,,FF,,,,,,,,1,3.10961,,,,,,,,,,,,,,,,,,,,,,,,,,,7,-107,42,1,0,0,response7disk,5,-19,12,1,0,0,rectangle,-19,12,1,0,0,7,4,"[68,38,37,321,25,250,73,77,243,188,249,296,11,223,252,46,316,130,161,288]",-19,12,1,0,0,0,45,44,44,156,1,,,,,,,,,,,,,,,,,,,,,
,,,,,,,,,,,,,,,,,,,,,,,,,,,,,,,,,,,,,,,,,,,5f813d7e8973881f63254341,5fb5daaf5aa8461d3c2fd7a3,2020-11-18_23h40.09.657,Colour_Similarity_Experiment,2020.1.2,Win32,60,5fb5945709dec70f2d595766,,,,,,,,,,,,,,,,,,,,PF,,,,,,,,1,3.82477,,,,,,,,,,,,,,,,,,,,,,,,,,,5,-81,53,1,0,0,response7disk,6,9,-7,1,0,0,rectangle,-82,-31,1,0,0,7,2,"[68,38,37,321,25,250,73,77,243,188,249,296,11,223,252,46,316,130,161,288]",-6,-6,1,0,0,0,46,45,45,103,1,response5disk_3,rectangle,,,,,,,,,,,,,,,,,,,
,,,,,,,,,,,,,,,,,,,,,,,,,,,,,,,,,,,,,,,,,,,5f813d7e8973881f63254341,5fb5daaf5aa8461d3c2fd7a3,2020-11-18_23h40.09.657,Colour_Similarity_Experiment,2020.1.2,Win32,60,5fb5945709dec70f2d595766,,,,,,,,,,,,,,,,,,,,PF,,,,,,,,2,6.638585,,,,,,,,,,,,,,,,,,,,,,,,,,,1,-73,-48,1,0,0,response5disk,8,-11,-6,1,0,0,rectangle,-11,-6,1,0,0,7,1,"[68,38,37,321,25,250,73,77,243,188,249,296,11,223,252,46,316,130,161,288]",-11,-6,1,0,0,0,47,46,46,65,1,,,,,,,,,,,,,,,,,,,,,
,,,,,,,,,,,,,,,,,,,,,,,,,,,,,,,,,,,,,,,,,,,5f813d7e8973881f63254341,5fb5daaf5aa8461d3c2fd7a3,2020-11-18_23h40.09.657,Colour_Similarity_Experiment,2020.1.2,Win32,60,5fb5945709dec70f2d595766,,,,,,,,,,,,,,,,,,,,FF,,,,,,,,4,4.17377,,,,,,,,,,,,,,,,,,,,,,,,,,,6,34,-71,1,0,0,response3disk,9,8,-7,1,0,0,rectangle,8,-7,1,0,0,7,3,"[68,38,37,321,25,250,73,77,243,188,249,296,11,223,252,46,316,130,161,288]",8,-7,1,0,0,0,48,47,47,160,1,,,,,,,,,,,,,,,,,,,,,
,,,,,,,,,,,,,,,,,,,,,,,,,,,,,,,,,,,,,,,,,,,5f813d7e8973881f63254341,5fb5daaf5aa8461d3c2fd7a3,2020-11-18_23h40.09.657,Colour_Similarity_Experiment,2020.1.2,Win32,60,5fb5945709dec70f2d595766,,,,,,,,,,,,,,,,,,,,FF,,,,,,,,5,4.710045,,,,,,,,,,,,,,,,,,,,,,,,,,,5,69,-51,1,0,0,response3disk,1,-14,13,1,0,0,rectangle,-14,13,1,0,0,7,7,"[68,38,37,321,25,250,73,77,243,188,249,296,11,223,252,46,316,130,161,288]",-14,13,1,0,0,0,49,48,48,131,1,,,,,,,,,,,,,,,,,,,,,
,,,,,,,,,,,,,,,,,,,,,,,,,,,,,,,,,,,,,,,,,,,5f813d7e8973881f63254341,5fb5daaf5aa8461d3c2fd7a3,2020-11-18_23h40.09.657,Colour_Similarity_Experiment,2020.1.2,Win32,60,5fb5945709dec70f2d595766,,,,,,,,,,,,,,,,,,,,FF,,,,,,,,6,3.764215,,,,,,,,,,,,,,,,,,,,,,,,,,,5,70,33,1,0,0,response1disk,9,3,8,1,0,0,rectangle,3,8,1,0,0,7,7,"[68,38,37,321,25,250,73,77,243,188,249,296,11,223,252,46,316,130,161,288]",3,8,1,0,0,0,50,49,49,61,1,,,,,,,,,,,,,,,,,,,,,
,,,,,,,,,,,,,,,,,,,,,,,,,,,,,,,,,,,,,,,,,,,5f813d7e8973881f63254341,5fb5daaf5aa8461d3c2fd7a3,2020-11-18_23h40.09.657,Colour_Similarity_Experiment,2020.1.2,Win32,60,5fb5945709dec70f2d595766,,,,,,,,,,,,,,,,,,,,PF,,,,,,,,6,2.906015,,,,,,,,,,,,,,,,,,,,,,,,,,,2,68,31,1,0,0,response1disk,5,4,4,1,0,0,rectangle,4,4,1,0,0,7,4,"[68,38,37,321,25,250,73,77,243,188,249,296,11,223,252,46,316,130,161,288]",4,4,1,0,0,0,51,50,50,147,1,,,,,,,,,,,,,,,,,,,,,
,,,,,,,,,,,,,,,,,,,,,,,,,,,,,,,,,,,,,,,,,,,5f813d7e8973881f63254341,5fb5daaf5aa8461d3c2fd7a3,2020-11-18_23h40.09.657,Colour_Similarity_Experiment,2020.1.2,Win32,60,5fb5945709dec70f2d595766,,,,,,,,,,,,,,,,,,,,FF,,,,,,,,6,11.826645,,,,,,,,,,,,,,,,,,,,,,,,,,,4,80,25,1,0,0,response1disk,9,15,12,1,0,0,rectangle,15,12,1,0,0,7,4,"[68,38,37,321,25,250,73,77,243,188,249,296,11,223,252,46,316,130,161,288]",15,12,1,0,0,0,52,51,51,90,1,,,,,,,,,,,,,,,,,,,,,
,,,,,,,,,,,,,,,,,,,,,,,,,,,,,,,,,,,,,,,,,,,5f813d7e8973881f63254341,5fb5daaf5aa8461d3c2fd7a3,2020-11-18_23h40.09.657,Colour_Similarity_Experiment,2020.1.2,Win32,60,5fb5945709dec70f2d595766,,,,,,,,,,,,,,,,,,,,FF,,,,,,,,1,2.4612,,,,,,,,,,,,,,,,,,,,,,,,,,,9,-77,45,1,0,0,response7disk,8,-7,12,1,0,0,rectangle,-7,12,1,0,0,7,4,"[68,38,37,321,25,250,73,77,243,188,249,296,11,223,252,46,316,130,161,288]",-7,12,1,0,0,0,53,52,52,6,1,,,,,,,,,,,,,,,,,,,,,
,,,,,,,,,,,,,,,,,,,,,,,,,,,,,,,,,,,,,,,,,,,5f813d7e8973881f63254341,5fb5daaf5aa8461d3c2fd7a3,2020-11-18_23h40.09.657,Colour_Similarity_Experiment,2020.1.2,Win32,60,5fb5945709dec70f2d595766,,,,,,,,,,,,,,,,,,,,PF,,,,,,,,5,2.69183,,,,,,,,,,,,,,,,,,,,,,,,,,,9,79,-53,1,0,0,response3disk,2,11,3,1,0,0,rectangle,11,3,1,0,0,7,6,"[68,38,37,321,25,250,73,77,243,188,249,296,11,223,252,46,316,130,161,288]",11,3,1,0,0,0,54,53,53,157,1,,,,,,,,,,,,,,,,,,,,,
,,,,,,,,,,,,,,,,,,,,,,,,,,,,,,,,,,,,,,,,,,,5f813d7e8973881f63254341,5fb5daaf5aa8461d3c2fd7a3,2020-11-18_23h40.09.657,Colour_Similarity_Experiment,2020.1.2,Win32,60,5fb5945709dec70f2d595766,,,,,,,,,,,,,,,,,,,,PF,,,,,,,,6,2.366735,,,,,,,,,,,,,,,,,,,,,,,,,,,9,66,28,1,0,0,response1disk,4,-6,4,1,0,0,rectangle,-6,4,1,0,0,7,3,"[68,38,37,321,25,250,73,77,243,188,249,296,11,223,252,46,316,130,161,288]",-6,4,1,0,0,0,55,54,54,114,1,,,,,,,,,,,,,,,,,,,,,
,,,,,,,,,,,,,,,,,,,,,,,,,,,,,,,,,,,,,,,,,,,5f813d7e8973881f63254341,5fb5daaf5aa8461d3c2fd7a3,2020-11-18_23h40.09.657,Colour_Similarity_Experiment,2020.1.2,Win32,60,5fb5945709dec70f2d595766,,,,,,,,,,,,,,,,,,,,PF,,,,,,,,6,2.53274,,,,,,,,,,,,,,,,,,,,,,,,,,,2,75,23,1,0,0,response1disk,7,-12,-4,1,0,0,rectangle,-12,-4,1,0,0,7,4,"[68,38,37,321,25,250,73,77,243,188,249,296,11,223,252,46,316,130,161,288]",-12,-4,1,0,0,0,56,55,55,107,1,,,,,,,,,,,,,,,,,,,,,
,,,,,,,,,,,,,,,,,,,,,,,,,,,,,,,,,,,,,,,,,,,5f813d7e8973881f63254341,5fb5daaf5aa8461d3c2fd7a3,2020-11-18_23h40.09.657,Colour_Similarity_Experiment,2020.1.2,Win32,60,5fb5945709dec70f2d595766,,,,,,,,,,,,,,,,,,,,PF,,,,,,,,4,3.286775,,,,,,,,,,,,,,,,,,,,,,,,,,,8,43,-59,1,0,0,response3disk,6,9,-2,1,0,0,rectangle,9,-2,1,0,0,7,7,"[68,38,37,321,25,250,73,77,243,188,249,296,11,223,252,46,316,130,161,288]",9,-2,1,0,0,0,57,56,56,161,1,,,,,,,,,,,,,,,,,,,,,
,,,,,,,,,,,,,,,,,,,,,,,,,,,,,,,,,,,,,,,,,,,5f813d7e8973881f63254341,5fb5daaf5aa8461d3c2fd7a3,2020-11-18_23h40.09.657,Colour_Similarity_Experiment,2020.1.2,Win32,60,5fb5945709dec70f2d595766,,,,,,,,,,,,,,,,,,,,PF,,,,,,,,6,2.415625,,,,,,,,,,,,,,,,,,,,,,,,,,,4,64,35,1,0,0,response1disk,8,8,1,1,0,0,rectangle,8,1,1,0,0,7,1,"[68,38,37,321,25,250,73,77,243,188,249,296,11,223,252,46,316,130,161,288]",8,1,1,0,0,0,58,57,57,124,1,,,,,,,,,,,,,,,,,,,,,
,,,,,,,,,,,,,,,,,,,,,,,,,,,,,,,,,,,,,,,,,,,5f813d7e8973881f63254341,5fb5daaf5aa8461d3c2fd7a3,2020-11-18_23h40.09.657,Colour_Similarity_Experiment,2020.1.2,Win32,60,5fb5945709dec70f2d595766,,,,,,,,,,,,,,,,,,,,FF,,,,,,,,3,23.43926,,,,,,,,,,,,,,,,,,,,,,,,,,,7,-34,-83,1,0,0,response5disk,1,7,-1,1,0,0,rectangle,7,-1,1,0,0,7,4,"[68,38,37,321,25,250,73,77,243,188,249,296,11,223,252,46,316,130,161,288]",7,-1,1,0,0,0,59,58,58,132,1,,,,,,,,,,,,,,,,,,,,,
,,,,,,,,,,,,,,,,,,,,,,,,,,,,,,,,,,,,,,,,,,,5f813d7e8973881f63254341,5fb5daaf5aa8461d3c2fd7a3,2020-11-18_23h40.09.657,Colour_Similarity_Experiment,2020.1.2,Win32,60,5fb5945709dec70f2d595766,,,,,,,,,,,,,,,,,,,,PF,,,,,,,,4,4.47224,,,,,,,,,,,,,,,,,,,,,,,,,,,5,22,-49,1,0,0,response3disk,2,0,4,1,0,0,rectangle,0,4,1,0,0,7,7,"[68,38,37,321,25,250,73,77,243,188,249,296,11,223,252,46,316,130,161,288]",0,4,1,0,0,0,60,59,59,129,1,,,,,,,,,,,,,,,,,,,,,
,,,,,,,,,,,,,,,,,,,,,,,,,,,,,,,,,,,,,,,,,,,5f813d7e8973881f63254341,5fb5daaf5aa8461d3c2fd7a3,2020-11-18_23h40.09.657,Colour_Similarity_Experiment,2020.1.2,Win32,60,5fb5945709dec70f2d595766,,,,,,,,,,,,,,,,,,,,PF,,,,,,,,0,2.542055,,,,,,,,,,,,,,,,,,,,,,,,,,,7,-37,71,1,0,0,response7disk,7,4,1,1,0,0,rectangle,4,1,1,0,0,7,2,"[68,38,37,321,25,250,73,77,243,188,249,296,11,223,252,46,316,130,161,288]",4,1,1,0,0,0,61,60,60,51,1,,,,,,,,,,,,,,,,,,,,,
,,,,,,,,,,,,,,,,,,,,,,,,,,,,,,,,,,,,,,,,,,,5f813d7e8973881f63254341,5fb5daaf5aa8461d3c2fd7a3,2020-11-18_23h40.09.657,Colour_Similarity_Experiment,2020.1.2,Win32,60,5fb5945709dec70f2d595766,,,,,,,,,,,,,,,,,,,,PF,,,,,,,,1,1.767705,,,,,,,,,,,,,,,,,,,,,,,,,,,9,-57,47,1,0,0,response7disk,8,-4,-4,1,0,0,rectangle,-4,-4,1,0,0,7,3,"[68,38,37,321,25,250,73,77,243,188,249,296,11,223,252,46,316,130,161,288]",-4,-4,1,0,0,0,62,61,61,67,1,,,,,,,,,,,,,,,,,,,,,
,,,,,,,,,,,,,,,,,,,,,,,,,,,,,,,,,,,,,,,,,,,5f813d7e8973881f63254341,5fb5daaf5aa8461d3c2fd7a3,2020-11-18_23h40.09.657,Colour_Similarity_Experiment,2020.1.2,Win32,60,5fb5945709dec70f2d595766,,,,,,,,,,,,,,,,,,,,PF,,,,,,,,1,2.95511,,,,,,,,,,,,,,,,,,,,,,,,,,,6,-65,49,1,0,0,response7disk,7,-2,12,1,0,0,rectangle,-2,12,1,0,0,7,6,"[68,38,37,321,25,250,73,77,243,188,249,296,11,223,252,46,316,130,161,288]",-2,12,1,0,0,0,63,62,62,50,1,,,,,,,,,,,,,,,,,,,,,
,,,,,,,,,,,,,,,,,,,,,,,,,,,,,,,,,,,,,,,,,,,5f813d7e8973881f63254341,5fb5daaf5aa8461d3c2fd7a3,2020-11-18_23h40.09.657,Colour_Similarity_Experiment,2020.1.2,Win32,60,5fb5945709dec70f2d595766,,,,,,,,,,,,,,,,,,,,FF,,,,,,,,3,2.33221,,,,,,,,,,,,,,,,,,,,,,,,,,,3,-34,-47,1,0,0,response5disk,6,-5,1,1,0,0,rectangle,-5,1,1,0,0,7,7,"[68,38,37,321,25,250,73,77,243,188,249,296,11,223,252,46,316,130,161,288]",-5,1,1,0,0,0,64,63,63,95,1,,,,,,,,,,,,,,,,,,,,,
,,,,,,,,,,,,,,,,,,,,,,,,,,,,,,,,,,,,,,,,,,,5f813d7e8973881f63254341,5fb5daaf5aa8461d3c2fd7a3,2020-11-18_23h40.09.657,Colour_Similarity_Experiment,2020.1.2,Win32,60,5fb5945709dec70f2d595766,,,,,,,,,,,,,,,,,,,,PF,,,,,,,,5,3.107795,,,,,,,,,,,,,,,,,,,,,,,,,,,3,62,-47,1,0,0,response3disk,6,4,-2,1,0,0,rectangle,4,-2,1,0,0,7,2,"[68,38,37,321,25,250,73,77,243,188,249,296,11,223,252,46,316,130,161,288]",4,-2,1,0,0,0,65,64,64,47,1,,,,,,,,,,,,,,,,,,,,,
,,,,,,,,,,,,,,,,,,,,,,,,,,,,,,,,,,,,,,,,,,,5f813d7e8973881f63254341,5fb5daaf5aa8461d3c2fd7a3,2020-11-18_23h40.09.657,Colour_Similarity_Experiment,2020.1.2,Win32,60,5fb5945709dec70f2d595766,,,,,,,,,,,,,,,,,,,,PF,,,,,,,,0,1.48667,,,,,,,,,,,,,,,,,,,,,,,,,,,1,-45,89,1,0,0,response7disk,1,0,6,1,0,0,rectangle,0,6,1,0,0,7,1,"[68,38,37,321,25,250,73,77,243,188,249,296,11,223,252,46,316,130,161,288]",0,6,1,0,0,0,66,65,65,76,1,,,,,,,,,,,,,,,,,,,,,
,,,,,,,,,,,,,,,,,,,,,,,,,,,,,,,,,,,,,,,,,,,5f813d7e8973881f63254341,5fb5daaf5aa8461d3c2fd7a3,2020-11-18_23h40.09.657,Colour_Similarity_Experiment,2020.1.2,Win32,60,5fb5945709dec70f2d595766,,,,,,,,,,,,,,,,,,,,FF,,,,,,,,5,7.932805,,,,,,,,,,,,,,,,,,,,,,,,,,,9,79,-23,1,0,0,response3disk,4,12,-4,1,0,0,rectangle,12,-4,1,0,0,7,5,"[68,38,37,321,25,250,73,77,243,188,249,296,11,223,252,46,316,130,161,288]",12,-4,1,0,0,0,67,66,66,60,1,,,,,,,,,,,,,,,,,,,,,
,,,,,,,,,,,,,,,,,,,,,,,,,,,,,,,,,,,,,,,,,,,5f813d7e8973881f63254341,5fb5daaf5aa8461d3c2fd7a3,2020-11-18_23h40.09.657,Colour_Similarity_Experiment,2020.1.2,Win32,60,5fb5945709dec70f2d595766,,,,,,,,,,,,,,,,,,,,FF,,,,,,,,0,1.39185,,,,,,,,,,,,,,,,,,,,,,,,,,,8,-34,71,1,0,0,response7disk,8,-8,12,1,0,0,rectangle,-17,91,1,0,0,0,0,"[68,38,37,321,25,250,73,77,243,188,249,296,11,223,252,46,316,130,161,288]",7,10,1,0,0,0,68,67,67,48,1,response7disk_3,rectangle,,,,,,,,,,,,,,,,,,,
,,,,,,,,,,,,,,,,,,,,,,,,,,,,,,,,,,,,,,,,,,,5f813d7e8973881f63254341,5fb5daaf5aa8461d3c2fd7a3,2020-11-18_23h40.09.657,Colour_Similarity_Experiment,2020.1.2,Win32,60,5fb5945709dec70f2d595766,,,,,,,,,,,,,,,,,,,,FF,,,,,,,,2,1.85557,,,,,,,,,,,,,,,,,,,,,,,,,,,9,-71,-25,1,0,0,response5disk,7,-8,-3,1,0,0,rectangle,-8,-3,1,0,0,0,7,"[68,38,37,321,25,250,73,77,243,188,249,296,11,223,252,46,316,130,161,288]",-8,-3,1,0,0,0,69,68,68,100,1,,,,,,,,,,,,,,,,,,,,,
,,,,,,,,,,,,,,,,,,,,,,,,,,,,,,,,,,,,,,,,,,,5f813d7e8973881f63254341,5fb5daaf5aa8461d3c2fd7a3,2020-11-18_23h40.09.657,Colour_Similarity_Experiment,2020.1.2,Win32,60,5fb5945709dec70f2d595766,,,,,,,,,,,,,,,,,,,,PF,,,,,,,,3,3.48296,,,,,,,,,,,,,,,,,,,,,,,,,,,1,-26,-60,1,0,0,response5disk,2,-5,-8,1,0,0,rectangle,-5,-8,1,0,0,0,7,"[68,38,37,321,25,250,73,77,243,188,249,296,11,223,252,46,316,130,161,288]",-5,-8,1,0,0,0,70,69,69,24,1,,,,,,,,,,,,,,,,,,,,,
,,,,,,,,,,,,,,,,,,,,,,,,,,,,,,,,,,,,,,,,,,,5f813d7e8973881f63254341,5fb5daaf5aa8461d3c2fd7a3,2020-11-18_23h40.09.657,Colour_Similarity_Experiment,2020.1.2,Win32,60,5fb5945709dec70f2d595766,,,,,,,,,,,,,,,,,,,,FF,,,,,,,,5,2.334115,,,,,,,,,,,,,,,,,,,,,,,,,,,9,55,-42,1,0,0,response3disk,5,-2,-3,1,0,0,rectangle,-2,-3,1,0,0,0,0,"[68,38,37,321,25,250,73,77,243,188,249,296,11,223,252,46,316,130,161,288]",-2,-3,1,0,0,0,71,70,70,128,1,,,,,,,,,,,,,,,,,,,,,
,,,,,,,,,,,,,,,,,,,,,,,,,,,,,,,,,,,,,,,,,,,5f813d7e8973881f63254341,5fb5daaf5aa8461d3c2fd7a3,2020-11-18_23h40.09.657,Colour_Similarity_Experiment,2020.1.2,Win32,60,5fb5945709dec70f2d595766,,,,,,,,,,,,,,,,,,,,PF,,,,,,,,6,2.407245,,,,,,,,,,,,,,,,,,,,,,,,,,,5,53,35,1,0,0,response1disk,8,9,3,1,0,0,rectangle,9,3,1,0,0,0,2,"[68,38,37,321,25,250,73,77,243,188,249,296,11,223,252,46,316,130,161,288]",9,3,1,0,0,0,72,71,71,149,1,,,,,,,,,,,,,,,,,,,,,
,,,,,,,,,,,,,,,,,,,,,,,,,,,,,,,,,,,,,,,,,,,5f813d7e8973881f63254341,5fb5daaf5aa8461d3c2fd7a3,2020-11-18_23h40.09.657,Colour_Similarity_Experiment,2020.1.2,Win32,60,5fb5945709dec70f2d595766,,,,,,,,,,,,,,,,,,,,FF,,,,,,,,5,4.14928,,,,,,,,,,,,,,,,,,,,,,,,,,,7,85,-32,1,0,0,response3disk,3,5,-9,1,0,0,rectangle,-84,48,1,0,0,1,1,"[68,38,37,321,25,250,73,77,243,188,249,296,11,223,252,46,316,130,161,288]",-11,3,1,0,0,0,73,72,72,73,1,response7disk_3,rectangle,,,,,,,,,,,,,,,,,,,
,,,,,,,,,,,,,,,,,,,,,,,,,,,,,,,,,,,,,,,,,,,5f813d7e8973881f63254341,5fb5daaf5aa8461d3c2fd7a3,2020-11-18_23h40.09.657,Colour_Similarity_Experiment,2020.1.2,Win32,60,5fb5945709dec70f2d595766,,,,,,,,,,,,,,,,,,,,FF,,,,,,,,4,4.69041,,,,,,,,,,,,,,,,,,,,,,,,,,,2,32,-74,1,0,0,response3disk,7,6,-1,1,0,0,rectangle,6,-1,1,0,0,1,4,"[68,38,37,321,25,250,73,77,243,188,249,296,11,223,252,46,316,130,161,288]",6,-1,1,0,0,0,74,73,73,63,1,,,,,,,,,,,,,,,,,,,,,
,,,,,,,,,,,,,,,,,,,,,,,,,,,,,,,,,,,,,,,,,,,5f813d7e8973881f63254341,5fb5daaf5aa8461d3c2fd7a3,2020-11-18_23h40.09.657,Colour_Similarity_Experiment,2020.1.2,Win32,60,5fb5945709dec70f2d595766,,,,,,,,,,,,,,,,,,,,PF,,,,,,,,5,2.57099,,,,,,,,,,,,,,,,,,,,,,,,,,,9,59,-34,1,0,0,response3disk,6,8,-7,1,0,0,rectangle,8,-7,1,0,0,1,5,"[68,38,37,321,25,250,73,77,243,188,249,296,11,223,252,46,316,130,161,288]",8,-7,1,0,0,0,75,74,74,148,1,,,,,,,,,,,,,,,,,,,,,
,,,,,,,,,,,,,,,,,,,,,,,,,,,,,,,,,,,,,,,,,,,5f813d7e8973881f63254341,5fb5daaf5aa8461d3c2fd7a3,2020-11-18_23h40.09.657,Colour_Similarity_Experiment,2020.1.2,Win32,60,5fb5945709dec70f2d595766,,,,,,,,,,,,,,,,,,,,FF,,,,,,,,1,2.56155,,,,,,,,,,,,,,,,,,,,,,,,,,,6,-70,37,1,0,0,response7disk,7,-13,6,1,0,0,rectangle,-13,6,1,0,0,1,0,"[68,38,37,321,25,250,73,77,243,188,249,296,11,223,252,46,316,130,161,288]",-13,6,1,0,0,0,76,75,75,18,1,,,,,,,,,,,,,,,,,,,,,
,,,,,,,,,,,,,,,,,,,,,,,,,,,,,,,,,,,,,,,,,,,5f813d7e8973881f63254341,5fb5daaf5aa8461d3c2fd7a3,2020-11-18_23h40.09.657,Colour_Similarity_Experiment,2020.1.2,Win32,60,5fb5945709dec70f2d595766,,,,,,,,,,,,,,,,,,,,FF,,,,,,,,3,3.78073,,,,,,,,,,,,,,,,,,,,,,,,,,,7,-46,-63,1,0,0,response5disk,9,2,2,1,0,0,rectangle,73,29,1,0,0,6,6,"[68,38,37,321,25,250,73,77,243,188,249,296,11,223,252,46,316,130,161,288]",12,-5,1,0,0,0,77,76,76,155,1,response1disk_3,rectangle,,,,,,,,,,,,,,,,,,,
,,,,,,,,,,,,,,,,,,,,,,,,,,,,,,,,,,,,,,,,,,,5f813d7e8973881f63254341,5fb5daaf5aa8461d3c2fd7a3,2020-11-18_23h40.09.657,Colour_Similarity_Experiment,2020.1.2,Win32,60,5fb5945709dec70f2d595766,,,,,,,,,,,,,,,,,,,,FF,,,,,,,,0,2.160035,,,,,,,,,,,,,,,,,,,,,,,,,,,6,-45,87,1,0,0,response7disk,6,-3,2,1,0,0,rectangle,-3,2,1,0,0,6,6,"[68,38,37,321,25,250,73,77,243,188,249,296,11,223,252,46,316,130,161,288]",-3,2,1,0,0,0,78,77,77,91,1,,,,,,,,,,,,,,,,,,,,,
,,,,,,,,,,,,,,,,,,,,,,,,,,,,,,,,,,,,,,,,,,,5f813d7e8973881f63254341,5fb5daaf5aa8461d3c2fd7a3,2020-11-18_23h40.09.657,Colour_Similarity_Experiment,2020.1.2,Win32,60,5fb5945709dec70f2d595766,,,,,,,,,,,,,,,,,,,,PF,,,,,,,,2,2.18812,,,,,,,,,,,,,,,,,,,,,,,,,,,7,-56,-19,1,0,0,response5disk,8,-14,-1,1,0,0,rectangle,-14,-1,1,0,0,6,0,"[68,38,37,321,25,250,73,77,243,188,249,296,11,223,252,46,316,130,161,288]",-14,-1,1,0,0,0,79,78,78,140,1,,,,,,,,,,,,,,,,,,,,,
,,,,,,,,,,,,,,,,,,,,,,,,,,,,,,,,,,,,,,,,,,,5f813d7e8973881f63254341,5fb5daaf5aa8461d3c2fd7a3,2020-11-18_23h40.09.657,Colour_Similarity_Experiment,2020.1.2,Win32,60,5fb5945709dec70f2d595766,,,,,,,,,,,,,,,,,,,,FF,,,,,,,,4,2.929495,,,,,,,,,,,,,,,,,,,,,,,,,,,9,26,-64,1,0,0,response3disk,6,7,-5,1,0,0,rectangle,7,-5,1,0,0,6,7,"[68,38,37,321,25,250,73,77,243,188,249,296,11,223,252,46,316,130,161,288]",7,-5,1,0,0,0,80,79,79,117,1,,,,,,,,,,,,,,,,,,,,,
,,,,,,,,,,,,,,,,,,,,,,,,,,,,,,,,,,,,,,,,,,,5f813d7e8973881f63254341,5fb5daaf5aa8461d3c2fd7a3,2020-11-18_23h40.09.657,Colour_Similarity_Experiment,2020.1.2,Win32,60,5fb5945709dec70f2d595766,,,,,,,,,,,,,,,,,,,,PF,,,,,,,,5,2.805545,,,,,,,,,,,,,,,,,,,,,,,,,,,8,62,-33,1,0,0,response3disk,5,-5,-6,1,0,0,rectangle,-5,-6,1,0,0,6,7,"[68,38,37,321,25,250,73,77,243,188,249,296,11,223,252,46,316,130,161,288]",-5,-6,1,0,0,0,81,80,80,98,1,,,,,,,,,,,,,,,,,,,,,
,,,,,,,,,,,,,,,,,,,,,,,,,,,,,,,,,,,,,,,,,,,5f813d7e8973881f63254341,5fb5daaf5aa8461d3c2fd7a3,2020-11-18_23h40.09.657,Colour_Similarity_Experiment,2020.1.2,Win32,60,5fb5945709dec70f2d595766,,,,,,,,,,,,,,,,,,,,PF,,,,,,,,7,4.826115,,,,,,,,,,,,,,,,,,,,,,,,,,,3,43,87,1,0,0,response1disk,8,6,9,1,0,0,rectangle,6,9,1,0,0,6,5,"[68,38,37,321,25,250,73,77,243,188,249,296,11,223,252,46,316,130,161,288]",6,9,1,0,0,0,82,81,81,3,1,,,,,,,,,,,,,,,,,,,,,
,,,,,,,,,,,,,,,,,,,,,,,,,,,,,,,,,,,,,,,,,,,5f813d7e8973881f63254341,5fb5daaf5aa8461d3c2fd7a3,2020-11-18_23h40.09.657,Colour_Similarity_Experiment,2020.1.2,Win32,60,5fb5945709dec70f2d595766,,,,,,,,,,,,,,,,,,,,PF,,,,,,,,1,3.27452,,,,,,,,,,,,,,,,,,,,,,,,,,,5,-89,29,1,0,0,response7disk,4,13,-9,1,0,0,rectangle,13,-9,1,0,0,6,3,"[68,38,37,321,25,250,73,77,243,188,249,296,11,223,252,46,316,130,161,288]",13,-9,1,0,0,0,83,82,82,54,1,,,,,,,,,,,,,,,,,,,,,
,,,,,,,,,,,,,,,,,,,,,,,,,,,,,,,,,,,,,,,,,,,5f813d7e8973881f63254341,5fb5daaf5aa8461d3c2fd7a3,2020-11-18_23h40.09.657,Colour_Similarity_Experiment,2020.1.2,Win32,60,5fb5945709dec70f2d595766,,,,,,,,,,,,,,,,,,,,FF,,,,,,,,4,5.136115,,,,,,,,,,,,,,,,,,,,,,,,,,,3,55,-63,1,0,0,response3disk,7,3,1,1,0,0,rectangle,3,1,1,0,0,6,6,"[68,38,37,321,25,250,73,77,243,188,249,296,11,223,252,46,316,130,161,288]",3,1,1,0,0,0,84,83,83,118,1,,,,,,,,,,,,,,,,,,,,,
,,,,,,,,,,,,,,,,,,,,,,,,,,,,,,,,,,,,,,,,,,,5f813d7e8973881f63254341,5fb5daaf5aa8461d3c2fd7a3,2020-11-18_23h40.09.657,Colour_Similarity_Experiment,2020.1.2,Win32,60,5fb5945709dec70f2d595766,,,,,,,,,,,,,,,,,,,,PF,,,,,,,,6,4.075505,,,,,,,,,,,,,,,,,,,,,,,,,,,9,67,24,1,0,0,response1disk,3,16,7,1,0,0,rectangle,16,7,1,0,0,6,2,"[68,38,37,321,25,250,73,77,243,188,249,296,11,223,252,46,316,130,161,288]",16,7,1,0,0,0,85,84,84,119,1,,,,,,,,,,,,,,,,,,,,,
,,,,,,,,,,,,,,,,,,,,,,,,,,,,,,,,,,,,,,,,,,,5f813d7e8973881f63254341,5fb5daaf5aa8461d3c2fd7a3,2020-11-18_23h40.09.657,Colour_Similarity_Experiment,2020.1.2,Win32,60,5fb5945709dec70f2d595766,,,,,,,,,,,,,,,,,,,,PF,,,,,,,,3,2.279055,,,,,,,,,,,,,,,,,,,,,,,,,,,1,-31,-70,1,0,0,response5disk,7,-5,-8,1,0,0,rectangle,-5,-8,1,0,0,6,7,"[68,38,37,321,25,250,73,77,243,188,249,296,11,223,252,46,316,130,161,288]",-5,-8,1,0,0,0,86,85,85,150,1,,,,,,,,,,,,,,,,,,,,,
,,,,,,,,,,,,,,,,,,,,,,,,,,,,,,,,,,,,,,,,,,,5f813d7e8973881f63254341,5fb5daaf5aa8461d3c2fd7a3,2020-11-18_23h40.09.657,Colour_Similarity_Experiment,2020.1.2,Win32,60,5fb5945709dec70f2d595766,,,,,,,,,,,,,,,,,,,,PF,,,,,,,,2,3.38852,,,,,,,,,,,,,,,,,,,,,,,,,,,4,-69,-22,1,0,0,response5disk,6,-1,4,1,0,0,rectangle,-1,4,1,0,0,6,2,"[68,38,37,321,25,250,73,77,243,188,249,296,11,223,252,46,316,130,161,288]",-1,4,1,0,0,0,87,86,86,120,1,,,,,,,,,,,,,,,,,,,,,
,,,,,,,,,,,,,,,,,,,,,,,,,,,,,,,,,,,,,,,,,,,5f813d7e8973881f63254341,5fb5daaf5aa8461d3c2fd7a3,2020-11-18_23h40.09.657,Colour_Similarity_Experiment,2020.1.2,Win32,60,5fb5945709dec70f2d595766,,,,,,,,,,,,,,,,,,,,PF,,,,,,,,2,2.80142,,,,,,,,,,,,,,,,,,,,,,,,,,,8,-77,-32,1,0,0,response5disk,1,-8,-3,1,0,0,rectangle,-8,-3,1,0,0,6,6,"[68,38,37,321,25,250,73,77,243,188,249,296,11,223,252,46,316,130,161,288]",-8,-3,1,0,0,0,88,87,87,57,1,,,,,,,,,,,,,,,,,,,,,
,,,,,,,,,,,,,,,,,,,,,,,,,,,,,,,,,,,,,,,,,,,5f813d7e8973881f63254341,5fb5daaf5aa8461d3c2fd7a3,2020-11-18_23h40.09.657,Colour_Similarity_Experiment,2020.1.2,Win32,60,5fb5945709dec70f2d595766,,,,,,,,,,,,,,,,,,,,FF,,,,,,,,0,1.72807,,,,,,,,,,,,,,,,,,,,,,,,,,,1,-30,65,1,0,0,response7disk,1,-5,13,1,0,0,rectangle,-5,13,1,0,0,6,0,"[68,38,37,321,25,250,73,77,243,188,249,296,11,223,252,46,316,130,161,288]",-5,13,1,0,0,0,89,88,88,151,1,,,,,,,,,,,,,,,,,,,,,
,,,,,,,,,,,,,,,,,,,,,,,,,,,,,,,,,,,,,,,,,,,5f813d7e8973881f63254341,5fb5daaf5aa8461d3c2fd7a3,2020-11-18_23h40.09.657,Colour_Similarity_Experiment,2020.1.2,Win32,60,5fb5945709dec70f2d595766,,,,,,,,,,,,,,,,,,,,PF,,,,,,,,0,1.306215,,,,,,,,,,,,,,,,,,,,,,,,,,,5,-38,79,1,0,0,response7disk,5,-3,4,1,0,0,rectangle,-3,4,1,0,0,6,6,"[68,38,37,321,25,250,73,77,243,188,249,296,11,223,252,46,316,130,161,288]",-3,4,1,0,0,0,90,89,89,94,1,,,,,,,,,,,,,,,,,,,,,
,,,,,,,,,,,,,,,,,,,,,,,,,,,,,,,,,,,,,,,,,,,5f813d7e8973881f63254341,5fb5daaf5aa8461d3c2fd7a3,2020-11-18_23h40.09.657,Colour_Similarity_Experiment,2020.1.2,Win32,60,5fb5945709dec70f2d595766,,,,,,,,,,,,,,,,,,,,FF,,,,,,,,5,2.75735,,,,,,,,,,,,,,,,,,,,,,,,,,,5,55,-41,1,0,0,response3disk,2,2,-3,1,0,0,rectangle,2,-3,1,0,0,6,7,"[68,38,37,321,25,250,73,77,243,188,249,296,11,223,252,46,316,130,161,288]",2,-3,1,0,0,0,91,90,90,55,1,,,,,,,,,,,,,,,,,,,,,
,,,,,,,,,,,,,,,,,,,,,,,,,,,,,,,,,,,,,,,,,,,5f813d7e8973881f63254341,5fb5daaf5aa8461d3c2fd7a3,2020-11-18_23h40.09.657,Colour_Similarity_Experiment,2020.1.2,Win32,60,5fb5945709dec70f2d595766,,,,,,,,,,,,,,,,,,,,FF,,,,,,,,2,4.21633,,,,,,,,,,,,,,,,,,,,,,,,,,,7,-71,-53,1,0,0,response5disk,4,-12,-11,1,0,0,rectangle,-12,-11,1,0,0,6,4,"[68,38,37,321,25,250,73,77,243,188,249,296,11,223,252,46,316,130,161,288]",-12,-11,1,0,0,0,92,91,91,158,1,,,,,,,,,,,,,,,,,,,,,
,,,,,,,,,,,,,,,,,,,,,,,,,,,,,,,,,,,,,,,,,,,5f813d7e8973881f63254341,5fb5daaf5aa8461d3c2fd7a3,2020-11-18_23h40.09.657,Colour_Similarity_Experiment,2020.1.2,Win32,60,5fb5945709dec70f2d595766,,,,,,,,,,,,,,,,,,,,PF,,,,,,,,3,4.55912,,,,,,,,,,,,,,,,,,,,,,,,,,,6,-57,-70,1,0,0,response5disk,3,-2,-9,1,0,0,rectangle,-2,-9,1,0,0,6,0,"[68,38,37,321,25,250,73,77,243,188,249,296,11,223,252,46,316,130,161,288]",-2,-9,1,0,0,0,93,92,92,26,1,,,,,,,,,,,,,,,,,,,,,
,,,,,,,,,,,,,,,,,,,,,,,,,,,,,,,,,,,,,,,,,,,5f813d7e8973881f63254341,5fb5daaf5aa8461d3c2fd7a3,2020-11-18_23h40.09.657,Colour_Similarity_Experiment,2020.1.2,Win32,60,5fb5945709dec70f2d595766,,,,,,,,,,,,,,,,,,,,FF,,,,,,,,7,3.62555,,,,,,,,,,,,,,,,,,,,,,,,,,,4,38,74,1,0,0,response1disk,1,2,13,1,0,0,rectangle,2,13,1,0,0,6,4,"[68,38,37,321,25,250,73,77,243,188,249,296,11,223,252,46,316,130,161,288]",2,13,1,0,0,0,94,93,93,102,1,,,,,,,,,,,,,,,,,,,,,
,,,,,,,,,,,,,,,,,,,,,,,,,,,,,,,,,,,,,,,,,,,5f813d7e8973881f63254341,5fb5daaf5aa8461d3c2fd7a3,2020-11-18_23h40.09.657,Colour_Similarity_Experiment,2020.1.2,Win32,60,5fb5945709dec70f2d595766,,,,,,,,,,,,,,,,,,,,PF,,,,,,,,5,12.58898,,,,,,,,,,,,,,,,,,,,,,,,,,,9,62,-42,1,0,0,response3disk,5,11,-1,1,0,0,rectangle,11,-1,1,0,0,6,2,"[68,38,37,321,25,250,73,77,243,188,249,296,11,223,252,46,316,130,161,288]",11,-1,1,0,0,0,95,94,94,134,1,,,,,,,,,,,,,,,,,,,,,
,,,,,,,,,,,,,,,,,,,,,,,,,,,,,,,,,,,,,,,,,,,5f813d7e8973881f63254341,5fb5daaf5aa8461d3c2fd7a3,2020-11-18_23h40.09.657,Colour_Similarity_Experiment,2020.1.2,Win32,60,5fb5945709dec70f2d595766,,,,,,,,,,,,,,,,,,,,FF,,,,,,,,2,3.939455,,,,,,,,,,,,,,,,,,,,,,,,,,,6,-75,-44,1,0,0,response5disk,4,2,0,1,0,0,rectangle,2,0,1,0,0,6,4,"[68,38,37,321,25,250,73,77,243,188,249,296,11,223,252,46,316,130,161,288]",2,0,1,0,0,0,96,95,95,56,1,,,,,,,,,,,,,,,,,,,,,
,,,,,,,,,,,,,,,,,,,,,,,,,,,,,,,,,,,,,,,,,,,5f813d7e8973881f63254341,5fb5daaf5aa8461d3c2fd7a3,2020-11-18_23h40.09.657,Colour_Similarity_Experiment,2020.1.2,Win32,60,5fb5945709dec70f2d595766,,,,,,,,,,,,,,,,,,,,FF,,,,,,,,6,1.58079,,,,,,,,,,,,,,,,,,,,,,,,,,,3,63,35,1,0,0,response1disk,9,3,3,1,0,0,rectangle,3,3,1,0,0,6,1,"[68,38,37,321,25,250,73,77,243,188,249,296,11,223,252,46,316,130,161,288]",3,3,1,0,0,0,97,96,96,143,1,,,,,,,,,,,,,,,,,,,,,
,,,,,,,,,,,,,,,,,,,,,,,,,,,,,,,,,,,,,,,,,,,5f813d7e8973881f63254341,5fb5daaf5aa8461d3c2fd7a3,2020-11-18_23h40.09.657,Colour_Similarity_Experiment,2020.1.2,Win32,60,5fb5945709dec70f2d595766,,,,,,,,,,,,,,,,,,,,PF,,,,,,,,5,4.146915,,,,,,,,,,,,,,,,,,,,,,,,,,,1,67,-37,1,0,0,response3disk,6,-3,9,1,0,0,rectangle,-3,9,1,0,0,6,0,"[68,38,37,321,25,250,73,77,243,188,249,296,11,223,252,46,316,130,161,288]",-3,9,1,0,0,0,98,97,97,144,1,,,,,,,,,,,,,,,,,,,,,
,,,,,,,,,,,,,,,,,,,,,,,,,,,,,,,,,,,,,,,,,,,5f813d7e8973881f63254341,5fb5daaf5aa8461d3c2fd7a3,2020-11-18_23h40.09.657,Colour_Similarity_Experiment,2020.1.2,Win32,60,5fb5945709dec70f2d595766,,,,,,,,,,,,,,,,,,,,FF,,,,,,,,0,1.651405,,,,,,,,,,,,,,,,,,,,,,,,,,,6,-24,60,1,0,0,response7disk,5,3,-1,1,0,0,rectangle,3,-1,1,0,0,6,3,"[68,38,37,321,25,250,73,77,243,188,249,296,11,223,252,46,316,130,161,288]",3,-1,1,0,0,0,99,98,98,126,1,,,,,,,,,,,,,,,,,,,,,
,,,,,,,,,,,,,,,,,,,,,,,,,,,,,,,,,,,,,,,,,,,5f813d7e8973881f63254341,5fb5daaf5aa8461d3c2fd7a3,2020-11-18_23h40.09.657,Colour_Similarity_Experiment,2020.1.2,Win32,60,5fb5945709dec70f2d595766,,,,,,,,,,,,,,,,,,,,FF,,,,,,,,6,2.297035,,,,,,,,,,,,,,,,,,,,,,,,,,,8,57,33,1,0,0,response1disk,4,8,3,1,0,0,rectangle,8,3,1,0,0,6,7,"[68,38,37,321,25,250,73,77,243,188,249,296,11,223,252,46,316,130,161,288]",8,3,1,0,0,0,100,99,99,88,1,,,,,,,,,,,,,,,,,,,,,
,,,,,,,,,,,,,,,,,,,,,,,,,,,,,,,,,,,,,,,,,,,5f813d7e8973881f63254341,5fb5daaf5aa8461d3c2fd7a3,2020-11-18_23h40.09.657,Colour_Similarity_Experiment,2020.1.2,Win32,60,5fb5945709dec70f2d595766,,,,,,,,,,,,,,,,,,,,FF,,,,,,,,0,1.367385,,,,,,,,,,,,,,,,,,,,,,,,,,,5,-34,64,1,0,0,response7disk,5,-7,12,1,0,0,rectangle,-7,12,1,0,0,6,0,"[68,38,37,321,25,250,73,77,243,188,249,296,11,223,252,46,316,130,161,288]",-7,12,1,0,0,0,101,100,100,19,1,,,,,,,,,,,,,,,,,,,,,
,,,,,,,,,,,,,,,,,,,,,,,,,,,,,,,,,,,,,,,,,,,5f813d7e8973881f63254341,5fb5daaf5aa8461d3c2fd7a3,2020-11-18_23h40.09.657,Colour_Similarity_Experiment,2020.1.2,Win32,60,5fb5945709dec70f2d595766,,,,,,,,,,,,,,,,,,,,PF,,,,,,,,0,1.136525,,,,,,,,,,,,,,,,,,,,,,,,,,,6,-32,58,1,0,0,response7disk,5,-5,5,1,0,0,rectangle,-5,5,1,0,0,6,0,"[68,38,37,321,25,250,73,77,243,188,249,296,11,223,252,46,316,130,161,288]",-5,5,1,0,0,0,102,101,101,59,1,,,,,,,,,,,,,,,,,,,,,
,,,,,,,,,,,,,,,,,,,,,,,,,,,,,,,,,,,,,,,,,,,5f813d7e8973881f63254341,5fb5daaf5aa8461d3c2fd7a3,2020-11-18_23h40.09.657,Colour_Similarity_Experiment,2020.1.2,Win32,60,5fb5945709dec70f2d595766,,,,,,,,,,,,,,,,,,,,PF,,,,,,,,1,1.61082,,,,,,,,,,,,,,,,,,,,,,,,,,,1,-57,26,1,0,0,response7disk,9,-6,-2,1,0,0,rectangle,-6,-2,1,0,0,6,4,"[68,38,37,321,25,250,73,77,243,188,249,296,11,223,252,46,316,130,161,288]",-6,-2,1,0,0,0,103,102,102,15,1,,,,,,,,,,,,,,,,,,,,,
,,,,,,,,,,,,,,,,,,,,,,,,,,,,,,,,,,,,,,,,,,,5f813d7e8973881f63254341,5fb5daaf5aa8461d3c2fd7a3,2020-11-18_23h40.09.657,Colour_Similarity_Experiment,2020.1.2,Win32,60,5fb5945709dec70f2d595766,,,,,,,,,,,,,,,,,,,,PF,,,,,,,,0,1.781,,,,,,,,,,,,,,,,,,,,,,,,,,,6,-38,69,1,0,0,response7disk,6,-7,13,1,0,0,rectangle,-7,13,1,0,0,6,2,"[68,38,37,321,25,250,73,77,243,188,249,296,11,223,252,46,316,130,161,288]",-7,13,1,0,0,0,104,103,103,0,1,,,,,,,,,,,,,,,,,,,,,
,,,,,,,,,,,,,,,,,,,,,,,,,,,,,,,,,,,,,,,,,,,5f813d7e8973881f63254341,5fb5daaf5aa8461d3c2fd7a3,2020-11-18_23h40.09.657,Colour_Similarity_Experiment,2020.1.2,Win32,60,5fb5945709dec70f2d595766,,,,,,,,,,,,,,,,,,,,FF,,,,,,,,1,2.461115,,,,,,,,,,,,,,,,,,,,,,,,,,,8,-71,33,1,0,0,response7disk,7,-19,10,1,0,0,rectangle,-19,10,1,0,0,6,5,"[68,38,37,321,25,250,73,77,243,188,249,296,11,223,252,46,316,130,161,288]",-19,10,1,0,0,0,105,104,104,86,1,,,,,,,,,,,,,,,,,,,,,
,,,,,,,,,,,,,,,,,,,,,,,,,,,,,,,,,,,,,,,,,,,5f813d7e8973881f63254341,5fb5daaf5aa8461d3c2fd7a3,2020-11-18_23h40.09.657,Colour_Similarity_Experiment,2020.1.2,Win32,60,5fb5945709dec70f2d595766,,,,,,,,,,,,,,,,,,,,PF,,,,,,,,5,4.57074,,,,,,,,,,,,,,,,,,,,,,,,,,,2,73,-32,1,0,0,response3disk,6,7,0,1,0,0,rectangle,7,0,1,0,0,6,7,"[68,38,37,321,25,250,73,77,243,188,249,296,11,223,252,46,316,130,161,288]",7,0,1,0,0,0,106,105,105,113,1,,,,,,,,,,,,,,,,,,,,,
,,,,,,,,,,,,,,,,,,,,,,,,,,,,,,,,,,,,,,,,,,,5f813d7e8973881f63254341,5fb5daaf5aa8461d3c2fd7a3,2020-11-18_23h40.09.657,Colour_Similarity_Experiment,2020.1.2,Win32,60,5fb5945709dec70f2d595766,,,,,,,,,,,,,,,,,,,,FF,,,,,,,,1,4.86614,,,,,,,,,,,,,,,,,,,,,,,,,,,3,-84,22,1,0,0,response7disk,2,-4,3,1,0,0,rectangle,-4,3,1,0,0,6,4,"[68,38,37,321,25,250,73,77,243,188,249,296,11,223,252,46,316,130,161,288]",-4,3,1,0,0,0,107,106,106,93,1,,,,,,,,,,,,,,,,,,,,,
,,,,,,,,,,,,,,,,,,,,,,,,,,,,,,,,,,,,,,,,,,,5f813d7e8973881f63254341,5fb5daaf5aa8461d3c2fd7a3,2020-11-18_23h40.09.657,Colour_Similarity_Experiment,2020.1.2,Win32,60,5fb5945709dec70f2d595766,,,,,,,,,,,,,,,,,,,,PF,,,,,,,,6,2.81993,,,,,,,,,,,,,,,,,,,,,,,,,,,5,80,27,1,0,0,response1disk,1,2,1,1,0,0,rectangle,2,1,1,0,0,6,3,"[68,38,37,321,25,250,73,77,243,188,249,296,11,223,252,46,316,130,161,288]",2,1,1,0,0,0,108,107,107,159,1,,,,,,,,,,,,,,,,,,,,,
,,,,,,,,,,,,,,,,,,,,,,,,,,,,,,,,,,,,,,,,,,,5f813d7e8973881f63254341,5fb5daaf5aa8461d3c2fd7a3,2020-11-18_23h40.09.657,Colour_Similarity_Experiment,2020.1.2,Win32,60,5fb5945709dec70f2d595766,,,,,,,,,,,,,,,,,,,,PF,,,,,,,,3,3.053125,,,,,,,,,,,,,,,,,,,,,,,,,,,5,-54,-81,1,0,0,response5disk,3,-6,-9,1,0,0,rectangle,-6,-9,1,0,0,6,7,"[68,38,37,321,25,250,73,77,243,188,249,296,11,223,252,46,316,130,161,288]",-6,-9,1,0,0,0,109,108,108,109,1,,,,,,,,,,,,,,,,,,,,,
,,,,,,,,,,,,,,,,,,,,,,,,,,,,,,,,,,,,,,,,,,,5f813d7e8973881f63254341,5fb5daaf5aa8461d3c2fd7a3,2020-11-18_23h40.09.657,Colour_Similarity_Experiment,2020.1.2,Win32,60,5fb5945709dec70f2d595766,,,,,,,,,,,,,,,,,,,,PF,,,,,,,,5,10.782685,,,,,,,,,,,,,,,,,,,,,,,,,,,6,61,-26,1,0,0,response3disk,1,-1,-2,1,0,0,rectangle,-1,-2,1,0,0,6,4,"[68,38,37,321,25,250,73,77,243,188,249,296,11,223,252,46,316,130,161,288]",-1,-2,1,0,0,0,110,109,109,46,1,,,,,,,,,,,,,,,,,,,,,
,,,,,,,,,,,,,,,,,,,,,,,,,,,,,,,,,,,,,,,,,,,5f813d7e8973881f63254341,5fb5daaf5aa8461d3c2fd7a3,2020-11-18_23h40.09.657,Colour_Similarity_Experiment,2020.1.2,Win32,60,5fb5945709dec70f2d595766,,,,,,,,,,,,,,,,,,,,FF,,,,,,,,2,1.867285,,,,,,,,,,,,,,,,,,,,,,,,,,,5,-80,-37,1,0,0,response5disk,4,0,-1,1,0,0,rectangle,0,-1,1,0,0,6,4,"[68,38,37,321,25,250,73,77,243,188,249,296,11,223,252,46,316,130,161,288]",0,-1,1,0,0,0,111,110,110,8,1,,,,,,,,,,,,,,,,,,,,,
,,,,,,,,,,,,,,,,,,,,,,,,,,,,,,,,,,,,,,,,,,,5f813d7e8973881f63254341,5fb5daaf5aa8461d3c2fd7a3,2020-11-18_23h40.09.657,Colour_Similarity_Experiment,2020.1.2,Win32,60,5fb5945709dec70f2d595766,,,,,,,,,,,,,,,,,,,,FF,,,,,,,,7,2.685035,,,,,,,,,,,,,,,,,,,,,,,,,,,1,34,99,1,0,0,response1disk,4,-10,-3,1,0,0,rectangle,-10,-3,1,0,0,6,7,"[68,38,37,321,25,250,73,77,243,188,249,296,11,223,252,46,316,130,161,288]",-10,-3,1,0,0,0,112,111,111,135,1,,,,,,,,,,,,,,,,,,,,,
,,,,,,,,,,,,,,,,,,,,,,,,,,,,,,,,,,,,,,,,,,,5f813d7e8973881f63254341,5fb5daaf5aa8461d3c2fd7a3,2020-11-18_23h40.09.657,Colour_Similarity_Experiment,2020.1.2,Win32,60,5fb5945709dec70f2d595766,,,,,,,,,,,,,,,,,,,,PF,,,,,,,,2,4.069335,,,,,,,,,,,,,,,,,,,,,,,,,,,9,-88,-39,1,0,0,response5disk,7,15,0,1,0,0,rectangle,15,0,1,0,0,6,7,"[68,38,37,321,25,250,73,77,243,188,249,296,11,223,252,46,316,130,161,288]",15,0,1,0,0,0,113,112,112,121,1,,,,,,,,,,,,,,,,,,,,,
,,,,,,,,,,,,,,,,,,,,,,,,,,,,,,,,,,,,,,,,,,,5f813d7e8973881f63254341,5fb5daaf5aa8461d3c2fd7a3,2020-11-18_23h40.09.657,Colour_Similarity_Experiment,2020.1.2,Win32,60,5fb5945709dec70f2d595766,,,,,,,,,,,,,,,,,,,,PF,,,,,,,,1,2.60844,,,,,,,,,,,,,,,,,,,,,,,,,,,4,-74,48,1,0,0,response7disk,3,-11,5,1,0,0,rectangle,-11,5,1,0,0,6,2,"[68,38,37,321,25,250,73,77,243,188,249,296,11,223,252,46,316,130,161,288]",-11,5,1,0,0,0,114,113,113,89,1,,,,,,,,,,,,,,,,,,,,,
,,,,,,,,,,,,,,,,,,,,,,,,,,,,,,,,,,,,,,,,,,,5f813d7e8973881f63254341,5fb5daaf5aa8461d3c2fd7a3,2020-11-18_23h40.09.657,Colour_Similarity_Experiment,2020.1.2,Win32,60,5fb5945709dec70f2d595766,,,,,,,,,,,,,,,,,,,,FF,,,,,,,,2,5.621065,,,,,,,,,,,,,,,,,,,,,,,,,,,4,-85,-26,1,0,0,response5disk,5,-10,-5,1,0,0,rectangle,-10,-5,1,0,0,6,0,"[68,38,37,321,25,250,73,77,243,188,249,296,11,223,252,46,316,130,161,288]",-10,-5,1,0,0,0,115,114,114,116,1,,,,,,,,,,,,,,,,,,,,,
,,,,,,,,,,,,,,,,,,,,,,,,,,,,,,,,,,,,,,,,,,,5f813d7e8973881f63254341,5fb5daaf5aa8461d3c2fd7a3,2020-11-18_23h40.09.657,Colour_Similarity_Experiment,2020.1.2,Win32,60,5fb5945709dec70f2d595766,,,,,,,,,,,,,,,,,,,,PF,,,,,,,,1,2.31627,,,,,,,,,,,,,,,,,,,,,,,,,,,7,-62,28,1,0,0,response7disk,5,-13,6,1,0,0,rectangle,-13,6,1,0,0,6,5,"[68,38,37,321,25,250,73,77,243,188,249,296,11,223,252,46,316,130,161,288]",-13,6,1,0,0,0,116,115,115,92,1,,,,,,,,,,,,,,,,,,,,,
,,,,,,,,,,,,,,,,,,,,,,,,,,,,,,,,,,,,,,,,,,,5f813d7e8973881f63254341,5fb5daaf5aa8461d3c2fd7a3,2020-11-18_23h40.09.657,Colour_Similarity_Experiment,2020.1.2,Win32,60,5fb5945709dec70f2d595766,,,,,,,,,,,,,,,,,,,,PF,,,,,,,,5,3.390205,,,,,,,,,,,,,,,,,,,,,,,,,,,6,60,-47,1,0,0,response3disk,2,8,-2,1,0,0,rectangle,8,-2,1,0,0,6,1,"[68,38,37,321,25,250,73,77,243,188,249,296,11,223,252,46,316,130,161,288]",8,-2,1,0,0,0,117,116,116,130,1,,,,,,,,,,,,,,,,,,,,,
,,,,,,,,,,,,,,,,,,,,,,,,,,,,,,,,,,,,,,,,,,,5f813d7e8973881f63254341,5fb5daaf5aa8461d3c2fd7a3,2020-11-18_23h40.09.657,Colour_Similarity_Experiment,2020.1.2,Win32,60,5fb5945709dec70f2d595766,,,,,,,,,,,,,,,,,,,,FF,,,,,,,,0,1.43093,,,,,,,,,,,,,,,,,,,,,,,,,,,7,-33,63,1,0,0,response7disk,7,-7,9,1,0,0,rectangle,-7,9,1,0,0,6,7,"[68,38,37,321,25,250,73,77,243,188,249,296,11,223,252,46,316,130,161,288]",-7,9,1,0,0,0,118,117,117,34,1,,,,,,,,,,,,,,,,,,,,,
,,,,,,,,,,,,,,,,,,,,,,,,,,,,,,,,,,,,,,,,,,,5f813d7e8973881f63254341,5fb5daaf5aa8461d3c2fd7a3,2020-11-18_23h40.09.657,Colour_Similarity_Experiment,2020.1.2,Win32,60,5fb5945709dec70f2d595766,,,,,,,,,,,,,,,,,,,,FF,,,,,,,,3,2.47135,,,,,,,,,,,,,,,,,,,,,,,,,,,1,-28,-43,1,0,0,response5disk,7,-7,-9,1,0,0,rectangle,-7,-9,1,0,0,6,1,"[68,38,37,321,25,250,73,77,243,188,249,296,11,223,252,46,316,130,161,288]",-7,-9,1,0,0,0,119,118,118,137,1,,,,,,,,,,,,,,,,,,,,,
,,,,,,,,,,,,,,,,,,,,,,,,,,,,,,,,,,,,,,,,,,,5f813d7e8973881f63254341,5fb5daaf5aa8461d3c2fd7a3,2020-11-18_23h40.09.657,Colour_Similarity_Experiment,2020.1.2,Win32,60,5fb5945709dec70f2d595766,,,,,,,,,,,,,,,,,,,,FF,,,,,,,,1,2.559985,,,,,,,,,,,,,,,,,,,,,,,,,,,7,-68,27,1,0,0,response7disk,8,2,-10,1,0,0,rectangle,2,-10,1,0,0,6,2,"[68,38,37,321,25,250,73,77,243,188,249,296,11,223,252,46,316,130,161,288]",2,-10,1,0,0,0,120,119,119,97,1,,,,,,,,,,,,,,,,,,,,,
,,,,,,,,,,,,,,,,,,,,,,,,,,,,,,,,,,,,,,,,,,,5f813d7e8973881f63254341,5fb5daaf5aa8461d3c2fd7a3,2020-11-18_23h40.09.657,Colour_Similarity_Experiment,2020.1.2,Win32,60,5fb5945709dec70f2d595766,,,,,,,,,,,,,,,,,,,,PF,,,,,,,,5,5.11284,,,,,,,,,,,,,,,,,,,,,,,,,,,3,64,-42,1,0,0,response3disk,7,9,-7,1,0,0,rectangle,9,-7,1,0,0,6,6,"[68,38,37,321,25,250,73,77,243,188,249,296,11,223,252,46,316,130,161,288]",9,-7,1,0,0,0,121,120,120,41,1,,,,,,,,,,,,,,,,,,,,,
,,,,,,,,,,,,,,,,,,,,,,,,,,,,,,,,,,,,,,,,,,,5f813d7e8973881f63254341,5fb5daaf5aa8461d3c2fd7a3,2020-11-18_23h40.09.657,Colour_Similarity_Experiment,2020.1.2,Win32,60,5fb5945709dec70f2d595766,,,,,,,,,,,,,,,,,,,,FF,,,,,,,,2,2.293055,,,,,,,,,,,,,,,,,,,,,,,,,,,4,-75,-43,1,0,0,response5disk,2,5,4,1,0,0,rectangle,5,4,1,0,0,6,1,"[68,38,37,321,25,250,73,77,243,188,249,296,11,223,252,46,316,130,161,288]",5,4,1,0,0,0,122,121,121,13,1,,,,,,,,,,,,,,,,,,,,,
,,,,,,,,,,,,,,,,,,,,,,,,,,,,,,,,,,,,,,,,,,,5f813d7e8973881f63254341,5fb5daaf5aa8461d3c2fd7a3,2020-11-18_23h40.09.657,Colour_Similarity_Experiment,2020.1.2,Win32,60,5fb5945709dec70f2d595766,,,,,,,,,,,,,,,,,,,,PF,,,,,,,,4,3.1217,,,,,,,,,,,,,,,,,,,,,,,,,,,1,48,-58,1,0,0,response3disk,3,-2,9,1,0,0,rectangle,-2,9,1,0,0,6,0,"[68,38,37,321,25,250,73,77,243,188,249,296,11,223,252,46,316,130,161,288]",-2,9,1,0,0,0,123,122,122,1,1,,,,,,,,,,,,,,,,,,,,,
,,,,,,,,,,,,,,,,,,,,,,,,,,,,,,,,,,,,,,,,,,,5f813d7e8973881f63254341,5fb5daaf5aa8461d3c2fd7a3,2020-11-18_23h40.09.657,Colour_Similarity_Experiment,2020.1.2,Win32,60,5fb5945709dec70f2d595766,,,,,,,,,,,,,,,,,,,,FF,,,,,,,,6,2.558125,,,,,,,,,,,,,,,,,,,,,,,,,,,8,63,30,1,0,0,response1disk,3,4,4,1,0,0,rectangle,4,4,1,0,0,6,1,"[68,38,37,321,25,250,73,77,243,188,249,296,11,223,252,46,316,130,161,288]",4,4,1,0,0,0,124,123,123,154,1,,,,,,,,,,,,,,,,,,,,,
,,,,,,,,,,,,,,,,,,,,,,,,,,,,,,,,,,,,,,,,,,,5f813d7e8973881f63254341,5fb5daaf5aa8461d3c2fd7a3,2020-11-18_23h40.09.657,Colour_Similarity_Experiment,2020.1.2,Win32,60,5fb5945709dec70f2d595766,,,,,,,,,,,,,,,,,,,,FF,,,,,,,,2,2.12451,,,,,,,,,,,,,,,,,,,,,,,,,,,1,-52,-27,1,0,0,response5disk,2,-18,1,1,0,0,rectangle,-18,1,1,0,0,6,5,"[68,38,37,321,25,250,73,77,243,188,249,296,11,223,252,46,316,130,161,288]",-18,1,1,0,0,0,125,124,124,2,1,,,,,,,,,,,,,,,,,,,,,
,,,,,,,,,,,,,,,,,,,,,,,,,,,,,,,,,,,,,,,,,,,5f813d7e8973881f63254341,5fb5daaf5aa8461d3c2fd7a3,2020-11-18_23h40.09.657,Colour_Similarity_Experiment,2020.1.2,Win32,60,5fb5945709dec70f2d595766,,,,,,,,,,,,,,,,,,,,FF,,,,,,,,5,2.60719,,,,,,,,,,,,,,,,,,,,,,,,,,,9,72,-26,1,0,0,response3disk,2,7,-6,1,0,0,rectangle,7,-6,1,0,0,6,1,"[68,38,37,321,25,250,73,77,243,188,249,296,11,223,252,46,316,130,161,288]",7,-6,1,0,0,0,126,125,125,11,1,,,,,,,,,,,,,,,,,,,,,
,,,,,,,,,,,,,,,,,,,,,,,,,,,,,,,,,,,,,,,,,,,5f813d7e8973881f63254341,5fb5daaf5aa8461d3c2fd7a3,2020-11-18_23h40.09.657,Colour_Similarity_Experiment,2020.1.2,Win32,60,5fb5945709dec70f2d595766,,,,,,,,,,,,,,,,,,,,PF,,,,,,,,3,3.031945,,,,,,,,,,,,,,,,,,,,,,,,,,,7,-32,-68,1,0,0,response5disk,4,4,-8,1,0,0,rectangle,4,-8,1,0,0,6,3,"[68,38,37,321,25,250,73,77,243,188,249,296,11,223,252,46,316,130,161,288]",4,-8,1,0,0,0,127,126,126,43,1,,,,,,,,,,,,,,,,,,,,,
,,,,,,,,,,,,,,,,,,,,,,,,,,,,,,,,,,,,,,,,,,,5f813d7e8973881f63254341,5fb5daaf5aa8461d3c2fd7a3,2020-11-18_23h40.09.657,Colour_Similarity_Experiment,2020.1.2,Win32,60,5fb5945709dec70f2d595766,,,,,,,,,,,,,,,,,,,,PF,,,,,,,,3,4.0402,,,,,,,,,,,,,,,,,,,,,,,,,,,3,-52,-73,1,0,0,response5disk,9,-9,-7,1,0,0,rectangle,-9,-7,1,0,0,6,0,"[68,38,37,321,25,250,73,77,243,188,249,296,11,223,252,46,316,130,161,288]",-9,-7,1,0,0,0,128,127,127,79,1,,,,,,,,,,,,,,,,,,,,,
,,,,,,,,,,,,,,,,,,,,,,,,,,,,,,,,,,,,,,,,,,,5f813d7e8973881f63254341,5fb5daaf5aa8461d3c2fd7a3,2020-11-18_23h40.09.657,Colour_Similarity_Experiment,2020.1.2,Win32,60,5fb5945709dec70f2d595766,,,,,,,,,,,,,,,,,,,,FF,,,,,,,,2,2.39509,,,,,,,,,,,,,,,,,,,,,,,,,,,4,-65,-50,1,0,0,response5disk,7,-12,-6,1,0,0,rectangle,-12,-6,1,0,0,6,2,"[68,38,37,321,25,250,73,77,243,188,249,296,11,223,252,46,316,130,161,288]",-12,-6,1,0,0,0,129,128,128,87,1,,,,,,,,,,,,,,,,,,,,,
,,,,,,,,,,,,,,,,,,,,,,,,,,,,,,,,,,,,,,,,,,,5f813d7e8973881f63254341,5fb5daaf5aa8461d3c2fd7a3,2020-11-18_23h40.09.657,Colour_Similarity_Experiment,2020.1.2,Win32,60,5fb5945709dec70f2d595766,,,,,,,,,,,,,,,,,,,,PF,,,,,,,,2,4.580835,,,,,,,,,,,,,,,,,,,,,,,,,,,3,-52,-40,1,0,0,response5disk,1,-10,-7,1,0,0,rectangle,-83,50,1,0,0,1,1,"[68,38,37,321,25,250,73,77,243,188,249,296,11,223,252,46,316,130,161,288]",-9,-2,1,0,0,0,130,129,129,96,1,response7disk_3,rectangle,,,,,,,,,,,,,,,,,,,
,,,,,,,,,,,,,,,,,,,,,,,,,,,,,,,,,,,,,,,,,,,5f813d7e8973881f63254341,5fb5daaf5aa8461d3c2fd7a3,2020-11-18_23h40.09.657,Colour_Similarity_Experiment,2020.1.2,Win32,60,5fb5945709dec70f2d595766,,,,,,,,,,,,,,,,,,,,FF,,,,,,,,0,1.463075,,,,,,,,,,,,,,,,,,,,,,,,,,,5,-21,65,1,0,0,response7disk,6,1,8,1,0,0,rectangle,1,8,1,0,0,1,2,"[68,38,37,321,25,250,73,77,243,188,249,296,11,223,252,46,316,130,161,288]",1,8,1,0,0,0,131,130,130,12,1,,,,,,,,,,,,,,,,,,,,,
,,,,,,,,,,,,,,,,,,,,,,,,,,,,,,,,,,,,,,,,,,,5f813d7e8973881f63254341,5fb5daaf5aa8461d3c2fd7a3,2020-11-18_23h40.09.657,Colour_Similarity_Experiment,2020.1.2,Win32,60,5fb5945709dec70f2d595766,,,,,,,,,,,,,,,,,,,,PF,,,,,,,,2,2.219055,,,,,,,,,,,,,,,,,,,,,,,,,,,4,-66,-44,1,0,0,response5disk,2,1,1,1,0,0,rectangle,1,1,1,0,0,1,0,"[68,38,37,321,25,250,73,77,243,188,249,296,11,223,252,46,316,130,161,288]",1,1,1,0,0,0,132,131,131,108,1,,,,,,,,,,,,,,,,,,,,,
,,,,,,,,,,,,,,,,,,,,,,,,,,,,,,,,,,,,,,,,,,,5f813d7e8973881f63254341,5fb5daaf5aa8461d3c2fd7a3,2020-11-18_23h40.09.657,Colour_Similarity_Experiment,2020.1.2,Win32,60,5fb5945709dec70f2d595766,,,,,,,,,,,,,,,,,,,,FF,,,,,,,,6,2.93378,,,,,,,,,,,,,,,,,,,,,,,,,,,8,63,25,1,0,0,response1disk,2,4,-3,1,0,0,rectangle,4,-3,1,0,0,1,6,"[68,38,37,321,25,250,73,77,243,188,249,296,11,223,252,46,316,130,161,288]",4,-3,1,0,0,0,133,132,132,22,1,,,,,,,,,,,,,,,,,,,,,
,,,,,,,,,,,,,,,,,,,,,,,,,,,,,,,,,,,,,,,,,,,5f813d7e8973881f63254341,5fb5daaf5aa8461d3c2fd7a3,2020-11-18_23h40.09.657,Colour_Similarity_Experiment,2020.1.2,Win32,60,5fb5945709dec70f2d595766,,,,,,,,,,,,,,,,,,,,FF,,,,,,,,5,6.16452,,,,,,,,,,,,,,,,,,,,,,,,,,,6,64,-60,1,0,0,response3disk,2,1,-2,1,0,0,rectangle,1,-2,1,0,0,1,7,"[68,38,37,321,25,250,73,77,243,188,249,296,11,223,252,46,316,130,161,288]",1,-2,1,0,0,0,134,133,133,112,1,,,,,,,,,,,,,,,,,,,,,
,,,,,,,,,,,,,,,,,,,,,,,,,,,,,,,,,,,,,,,,,,,5f813d7e8973881f63254341,5fb5daaf5aa8461d3c2fd7a3,2020-11-18_23h40.09.657,Colour_Similarity_Experiment,2020.1.2,Win32,60,5fb5945709dec70f2d595766,,,,,,,,,,,,,,,,,,,,FF,,,,,,,,3,2.866735,,,,,,,,,,,,,,,,,,,,,,,,,,,1,-38,-58,1,0,0,response5disk,8,-2,1,1,0,0,rectangle,-2,1,1,0,0,1,7,"[68,38,37,321,25,250,73,77,243,188,249,296,11,223,252,46,316,130,161,288]",-2,1,1,0,0,0,135,134,134,27,1,,,,,,,,,,,,,,,,,,,,,
,,,,,,,,,,,,,,,,,,,,,,,,,,,,,,,,,,,,,,,,,,,5f813d7e8973881f63254341,5fb5daaf5aa8461d3c2fd7a3,2020-11-18_23h40.09.657,Colour_Similarity_Experiment,2020.1.2,Win32,60,5fb5945709dec70f2d595766,,,,,,,,,,,,,,,,,,,,PF,,,,,,,,1,2.67579,,,,,,,,,,,,,,,,,,,,,,,,,,,5,-65,28,1,0,0,response7disk,7,7,0,1,0,0,rectangle,7,0,1,0,0,1,2,"[68,38,37,321,25,250,73,77,243,188,249,296,11,223,252,46,316,130,161,288]",7,0,1,0,0,0,136,135,135,146,1,,,,,,,,,,,,,,,,,,,,,
,,,,,,,,,,,,,,,,,,,,,,,,,,,,,,,,,,,,,,,,,,,5f813d7e8973881f63254341,5fb5daaf5aa8461d3c2fd7a3,2020-11-18_23h40.09.657,Colour_Similarity_Experiment,2020.1.2,Win32,60,5fb5945709dec70f2d595766,,,,,,,,,,,,,,,,,,,,PF,,,,,,,,7,1.9461,,,,,,,,,,,,,,,,,,,,,,,,,,,1,29,49,1,0,0,response1disk,4,1,12,1,0,0,rectangle,1,12,1,0,0,1,7,"[68,38,37,321,25,250,73,77,243,188,249,296,11,223,252,46,316,130,161,288]",1,12,1,0,0,0,137,136,136,139,1,,,,,,,,,,,,,,,,,,,,,
,,,,,,,,,,,,,,,,,,,,,,,,,,,,,,,,,,,,,,,,,,,5f813d7e8973881f63254341,5fb5daaf5aa8461d3c2fd7a3,2020-11-18_23h40.09.657,Colour_Similarity_Experiment,2020.1.2,Win32,60,5fb5945709dec70f2d595766,,,,,,,,,,,,,,,,,,,,FF,,,,,,,,1,2.67555,,,,,,,,,,,,,,,,,,,,,,,,,,,5,-63,40,1,0,0,response7disk,7,-20,10,1,0,0,rectangle,-20,10,1,0,0,1,6,"[68,38,37,321,25,250,73,77,243,188,249,296,11,223,252,46,316,130,161,288]",-20,10,1,0,0,0,138,137,137,7,1,,,,,,,,,,,,,,,,,,,,,
,,,,,,,,,,,,,,,,,,,,,,,,,,,,,,,,,,,,,,,,,,,5f813d7e8973881f63254341,5fb5daaf5aa8461d3c2fd7a3,2020-11-18_23h40.09.657,Colour_Similarity_Experiment,2020.1.2,Win32,60,5fb5945709dec70f2d595766,,,,,,,,,,,,,,,,,,,,PF,,,,,,,,0,1.478045,,,,,,,,,,,,,,,,,,,,,,,,,,,4,-32,73,1,0,0,response7disk,4,-4,4,1,0,0,rectangle,-4,4,1,0,0,1,4,"[68,38,37,321,25,250,73,77,243,188,249,296,11,223,252,46,316,130,161,288]",-4,4,1,0,0,0,139,138,138,70,1,,,,,,,,,,,,,,,,,,,,,
,,,,,,,,,,,,,,,,,,,,,,,,,,,,,,,,,,,,,,,,,,,5f813d7e8973881f63254341,5fb5daaf5aa8461d3c2fd7a3,2020-11-18_23h40.09.657,Colour_Similarity_Experiment,2020.1.2,Win32,60,5fb5945709dec70f2d595766,,,,,,,,,,,,,,,,,,,,PF,,,,,,,,1,3.373295,,,,,,,,,,,,,,,,,,,,,,,,,,,6,-81,27,1,0,0,response7disk,4,-3,6,1,0,0,rectangle,-3,6,1,0,0,1,1,"[68,38,37,321,25,250,73,77,243,188,249,296,11,223,252,46,316,130,161,288]",-3,6,1,0,0,0,140,139,139,33,1,,,,,,,,,,,,,,,,,,,,,
,,,,,,,,,,,,,,,,,,,,,,,,,,,,,,,,,,,,,,,,,,,5f813d7e8973881f63254341,5fb5daaf5aa8461d3c2fd7a3,2020-11-18_23h40.09.657,Colour_Similarity_Experiment,2020.1.2,Win32,60,5fb5945709dec70f2d595766,,,,,,,,,,,,,,,,,,,,PF,,,,,,,,3,2.03689,,,,,,,,,,,,,,,,,,,,,,,,,,,6,-42,-50,1,0,0,response5disk,8,-8,1,1,0,0,rectangle,-8,1,1,0,0,1,6,"[68,38,37,321,25,250,73,77,243,188,249,296,11,223,252,46,316,130,161,288]",-8,1,1,0,0,0,141,140,140,64,1,,,,,,,,,,,,,,,,,,,,,
,,,,,,,,,,,,,,,,,,,,,,,,,,,,,,,,,,,,,,,,,,,5f813d7e8973881f63254341,5fb5daaf5aa8461d3c2fd7a3,2020-11-18_23h40.09.657,Colour_Similarity_Experiment,2020.1.2,Win32,60,5fb5945709dec70f2d595766,,,,,,,,,,,,,,,,,,,,FF,,,,,,,,2,3.833935,,,,,,,,,,,,,,,,,,,,,,,,,,,2,-69,-51,1,0,0,response5disk,1,-3,-1,1,0,0,rectangle,-3,-1,1,0,0,1,6,"[68,38,37,321,25,250,73,77,243,188,249,296,11,223,252,46,316,130,161,288]",-3,-1,1,0,0,0,142,141,141,85,1,,,,,,,,,,,,,,,,,,,,,
,,,,,,,,,,,,,,,,,,,,,,,,,,,,,,,,,,,,,,,,,,,5f813d7e8973881f63254341,5fb5daaf5aa8461d3c2fd7a3,2020-11-18_23h40.09.657,Colour_Similarity_Experiment,2020.1.2,Win32,60,5fb5945709dec70f2d595766,,,,,,,,,,,,,,,,,,,,FF,,,,,,,,2,4.708465,,,,,,,,,,,,,,,,,,,,,,,,,,,6,-83,-39,1,0,0,response5disk,3,12,2,1,0,0,rectangle,12,2,1,0,0,1,0,"[68,38,37,321,25,250,73,77,243,188,249,296,11,223,252,46,316,130,161,288]",12,2,1,0,0,0,143,142,142,21,1,,,,,,,,,,,,,,,,,,,,,
,,,,,,,,,,,,,,,,,,,,,,,,,,,,,,,,,,,,,,,,,,,5f813d7e8973881f63254341,5fb5daaf5aa8461d3c2fd7a3,2020-11-18_23h40.09.657,Colour_Similarity_Experiment,2020.1.2,Win32,60,5fb5945709dec70f2d595766,,,,,,,,,,,,,,,,,,,,FF,,,,,,,,2,2.360795,,,,,,,,,,,,,,,,,,,,,,,,,,,5,-74,-44,1,0,0,response5disk,3,-4,-4,1,0,0,rectangle,-4,-4,1,0,0,1,2,"[68,38,37,321,25,250,73,77,243,188,249,296,11,223,252,46,316,130,161,288]",-4,-4,1,0,0,0,144,143,143,25,1,,,,,,,,,,,,,,,,,,,,,
,,,,,,,,,,,,,,,,,,,,,,,,,,,,,,,,,,,,,,,,,,,5f813d7e8973881f63254341,5fb5daaf5aa8461d3c2fd7a3,2020-11-18_23h40.09.657,Colour_Similarity_Experiment,2020.1.2,Win32,60,5fb5945709dec70f2d595766,,,,,,,,,,,,,,,,,,,,PF,,,,,,,,3,1.985165,,,,,,,,,,,,,,,,,,,,,,,,,,,6,-34,-65,1,0,0,response5disk,9,-6,1,1,0,0,rectangle,-6,1,1,0,0,1,2,"[68,38,37,321,25,250,73,77,243,188,249,296,11,223,252,46,316,130,161,288]",-6,1,1,0,0,0,145,144,144,45,1,,,,,,,,,,,,,,,,,,,,,
,,,,,,,,,,,,,,,,,,,,,,,,,,,,,,,,,,,,,,,,,,,5f813d7e8973881f63254341,5fb5daaf5aa8461d3c2fd7a3,2020-11-18_23h40.09.657,Colour_Similarity_Experiment,2020.1.2,Win32,60,5fb5945709dec70f2d595766,,,,,,,,,,,,,,,,,,,,PF,,,,,,,,0,1.30037,,,,,,,,,,,,,,,,,,,,,,,,,,,2,-41,63,1,0,0,response7disk,2,4,2,1,0,0,rectangle,4,2,1,0,0,1,3,"[68,38,37,321,25,250,73,77,243,188,249,296,11,223,252,46,316,130,161,288]",4,2,1,0,0,0,146,145,145,14,1,,,,,,,,,,,,,,,,,,,,,
,,,,,,,,,,,,,,,,,,,,,,,,,,,,,,,,,,,,,,,,,,,5f813d7e8973881f63254341,5fb5daaf5aa8461d3c2fd7a3,2020-11-18_23h40.09.657,Colour_Similarity_Experiment,2020.1.2,Win32,60,5fb5945709dec70f2d595766,,,,,,,,,,,,,,,,,,,,PF,,,,,,,,2,2.642795,,,,,,,,,,,,,,,,,,,,,,,,,,,2,-64,-32,1,0,0,response5disk,1,0,-4,1,0,0,rectangle,0,-4,1,0,0,1,7,"[68,38,37,321,25,250,73,77,243,188,249,296,11,223,252,46,316,130,161,288]",0,-4,1,0,0,0,147,146,146,9,1,,,,,,,,,,,,,,,,,,,,,
,,,,,,,,,,,,,,,,,,,,,,,,,,,,,,,,,,,,,,,,,,,5f813d7e8973881f63254341,5fb5daaf5aa8461d3c2fd7a3,2020-11-18_23h40.09.657,Colour_Similarity_Experiment,2020.1.2,Win32,60,5fb5945709dec70f2d595766,,,,,,,,,,,,,,,,,,,,PF,,,,,,,,3,2.00455,,,,,,,,,,,,,,,,,,,,,,,,,,,7,-24,-74,1,0,0,response5disk,1,11,3,1,0,0,rectangle,11,3,1,0,0,1,0,"[68,38,37,321,25,250,73,77,243,188,249,296,11,223,252,46,316,130,161,288]",11,3,1,0,0,0,148,147,147,53,1,,,,,,,,,,,,,,,,,,,,,
,,,,,,,,,,,,,,,,,,,,,,,,,,,,,,,,,,,,,,,,,,,5f813d7e8973881f63254341,5fb5daaf5aa8461d3c2fd7a3,2020-11-18_23h40.09.657,Colour_Similarity_Experiment,2020.1.2,Win32,60,5fb5945709dec70f2d595766,,,,,,,,,,,,,,,,,,,,FF,,,,,,,,0,1.32039,,,,,,,,,,,,,,,,,,,,,,,,,,,2,-39,61,1,0,0,response7disk,2,-6,7,1,0,0,rectangle,-6,7,1,0,0,1,6,"[68,38,37,321,25,250,73,77,243,188,249,296,11,223,252,46,316,130,161,288]",-6,7,1,0,0,0,149,148,148,142,1,,,,,,,,,,,,,,,,,,,,,
,,,,,,,,,,,,,,,,,,,,,,,,,,,,,,,,,,,,,,,,,,,5f813d7e8973881f63254341,5fb5daaf5aa8461d3c2fd7a3,2020-11-18_23h40.09.657,Colour_Similarity_Experiment,2020.1.2,Win32,60,5fb5945709dec70f2d595766,,,,,,,,,,,,,,,,,,,,PF,,,,,,,,4,2.75642,,,,,,,,,,,,,,,,,,,,,,,,,,,5,44,-62,1,0,0,response3disk,9,5,10,1,0,0,rectangle,5,10,1,0,0,1,3,"[68,38,37,321,25,250,73,77,243,188,249,296,11,223,252,46,316,130,161,288]",5,10,1,0,0,0,150,149,149,136,1,,,,,,,,,,,,,,,,,,,,,
,,,,,,,,,,,,,,,,,,,,,,,,,,,,,,,,,,,,,,,,,,,5f813d7e8973881f63254341,5fb5daaf5aa8461d3c2fd7a3,2020-11-18_23h40.09.657,Colour_Similarity_Experiment,2020.1.2,Win32,60,5fb5945709dec70f2d595766,,,,,,,,,,,,,,,,,,,,FF,,,,,,,,2,3.217575,,,,,,,,,,,,,,,,,,,,,,,,,,,2,-86,-25,1,0,0,response5disk,4,1,-5,1,0,0,rectangle,1,-5,1,0,0,1,7,"[68,38,37,321,25,250,73,77,243,188,249,296,11,223,252,46,316,130,161,288]",1,-5,1,0,0,0,151,150,150,145,1,,,,,,,,,,,,,,,,,,,,,
,,,,,,,,,,,,,,,,,,,,,,,,,,,,,,,,,,,,,,,,,,,5f813d7e8973881f63254341,5fb5daaf5aa8461d3c2fd7a3,2020-11-18_23h40.09.657,Colour_Similarity_Experiment,2020.1.2,Win32,60,5fb5945709dec70f2d595766,,,,,,,,,,,,,,,,,,,,FF,,,,,,,,6,4.389985,,,,,,,,,,,,,,,,,,,,,,,,,,,2,87,19,1,0,0,response1disk,9,-14,-3,1,0,0,rectangle,-14,-3,1,0,0,1,4,"[68,38,37,321,25,250,73,77,243,188,249,296,11,223,252,46,316,130,161,288]",-14,-3,1,0,0,0,152,151,151,72,1,,,,,,,,,,,,,,,,,,,,,
,,,,,,,,,,,,,,,,,,,,,,,,,,,,,,,,,,,,,,,,,,,5f813d7e8973881f63254341,5fb5daaf5aa8461d3c2fd7a3,2020-11-18_23h40.09.657,Colour_Similarity_Experiment,2020.1.2,Win32,60,5fb5945709dec70f2d595766,,,,,,,,,,,,,,,,,,,,FF,,,,,,,,4,3.070425,,,,,,,,,,,,,,,,,,,,,,,,,,,1,46,-60,1,0,0,response3disk,6,10,-2,1,0,0,rectangle,10,-2,1,0,0,1,4,"[68,38,37,321,25,250,73,77,243,188,249,296,11,223,252,46,316,130,161,288]",10,-2,1,0,0,0,153,152,152,58,1,,,,,,,,,,,,,,,,,,,,,
,,,,,,,,,,,,,,,,,,,,,,,,,,,,,,,,,,,,,,,,,,,5f813d7e8973881f63254341,5fb5daaf5aa8461d3c2fd7a3,2020-11-18_23h40.09.657,Colour_Similarity_Experiment,2020.1.2,Win32,60,5fb5945709dec70f2d595766,,,,,,,,,,,,,,,,,,,,PF,,,,,,,,1,1.59913,,,,,,,,,,,,,,,,,,,,,,,,,,,7,-68,55,1,0,0,response7disk,6,0,2,1,0,0,rectangle,0,2,1,0,0,1,1,"[68,38,37,321,25,250,73,77,243,188,249,296,11,223,252,46,316,130,161,288]",0,2,1,0,0,0,154,153,153,29,1,,,,,,,,,,,,,,,,,,,,,
,,,,,,,,,,,,,,,,,,,,,,,,,,,,,,,,,,,,,,,,,,,5f813d7e8973881f63254341,5fb5daaf5aa8461d3c2fd7a3,2020-11-18_23h40.09.657,Colour_Similarity_Experiment,2020.1.2,Win32,60,5fb5945709dec70f2d595766,,,,,,,,,,,,,,,,,,,,PF,,,,,,,,5,3.3704,,,,,,,,,,,,,,,,,,,,,,,,,,,7,64,-54,1,0,0,response3disk,2,8,1,1,0,0,rectangle,8,1,1,0,0,1,2,"[68,38,37,321,25,250,73,77,243,188,249,296,11,223,252,46,316,130,161,288]",8,1,1,0,0,0,155,154,154,32,1,,,,,,,,,,,,,,,,,,,,,
,,,,,,,,,,,,,,,,,,,,,,,,,,,,,,,,,,,,,,,,,,,5f813d7e8973881f63254341,5fb5daaf5aa8461d3c2fd7a3,2020-11-18_23h40.09.657,Colour_Similarity_Experiment,2020.1.2,Win32,60,5fb5945709dec70f2d595766,,,,,,,,,,,,,,,,,,,,PF,,,,,,,,6,2.423485,,,,,,,,,,,,,,,,,,,,,,,,,,,4,76,28,1,0,0,response1disk,9,4,0,1,0,0,rectangle,4,0,1,0,0,1,2,"[68,38,37,321,25,250,73,77,243,188,249,296,11,223,252,46,316,130,161,288]",4,0,1,0,0,0,156,155,155,75,1,,,,,,,,,,,,,,,,,,,,,
,,,,,,,,,,,,,,,,,,,,,,,,,,,,,,,,,,,,,,,,,,,5f813d7e8973881f63254341,5fb5daaf5aa8461d3c2fd7a3,2020-11-18_23h40.09.657,Colour_Similarity_Experiment,2020.1.2,Win32,60,5fb5945709dec70f2d595766,,,,,,,,,,,,,,,,,,,,PF,,,,,,,,7,2.456315,,,,,,,,,,,,,,,,,,,,,,,,,,,2,38,68,1,0,0,response1disk,8,-5,-1,1,0,0,rectangle,-5,-1,1,0,0,1,6,"[68,38,37,321,25,250,73,77,243,188,249,296,11,223,252,46,316,130,161,288]",-5,-1,1,0,0,0,157,156,156,52,1,,,,,,,,,,,,,,,,,,,,,
,,,,,,,,,,,,,,,,,,,,,,,,,,,,,,,,,,,,,,,,,,,5f813d7e8973881f63254341,5fb5daaf5aa8461d3c2fd7a3,2020-11-18_23h40.09.657,Colour_Similarity_Experiment,2020.1.2,Win32,60,5fb5945709dec70f2d595766,,,,,,,,,,,,,,,,,,,,FF,,,,,,,,1,2.55497,,,,,,,,,,,,,,,,,,,,,,,,,,,9,-65,25,1,0,0,response7disk,1,-9,11,1,0,0,rectangle,-9,11,1,0,0,1,4,"[68,38,37,321,25,250,73,77,243,188,249,296,11,223,252,46,316,130,161,288]",-9,11,1,0,0,0,158,157,157,111,1,,,,,,,,,,,,,,,,,,,,,
,,,,,,,,,,,,,,,,,,,,,,,,,,,,,,,,,,,,,,,,,,,5f813d7e8973881f63254341,5fb5daaf5aa8461d3c2fd7a3,2020-11-18_23h40.09.657,Colour_Similarity_Experiment,2020.1.2,Win32,60,5fb5945709dec70f2d595766,,,,,,,,,,,,,,,,,,,,FF,,,,,,,,4,1.96882,,,,,,,,,,,,,,,,,,,,,,,,,,,6,32,-62,1,0,0,response3disk,8,-6,6,1,0,0,rectangle,-6,6,1,0,0,1,1,"[68,38,37,321,25,250,73,77,243,188,249,296,11,223,252,46,316,130,161,288]",-6,6,1,0,0,0,159,158,158,133,1,,,,,,,,,,,,,,,,,,,,,
,,,,,,,,,,,,,,,,,,,,,,,,,,,,,,,,,,,,,,,,,,,5f813d7e8973881f63254341,5fb5daaf5aa8461d3c2fd7a3,2020-11-18_23h40.09.657,Colour_Similarity_Experiment,2020.1.2,Win32,60,5fb5945709dec70f2d595766,,,,,,,,,,,,,,,,,,,,PF,,,,,,,,3,3.104685,,,,,,,,,,,,,,,,,,,,,,,,,,,7,-48,-94,1,0,0,response5disk,9,6,-2,1,0,0,rectangle,6,-2,1,0,0,1,6,"[68,38,37,321,25,250,73,77,243,188,249,296,11,223,252,46,316,130,161,288]",6,-2,1,0,0,0,160,159,159,10,1,,,,,,,,,,,,,,,,,,,,,
,,,,,,,,,,,,,,,,,,,,,,,,,,,,,,,,,,,,,,,,,,,5f813d7e8973881f63254341,5fb5daaf5aa8461d3c2fd7a3,2020-11-18_23h40.09.657,Colour_Similarity_Experiment,2020.1.2,Win32,60,5fb5945709dec70f2d595766,,,,,,,,,,,,,,,,,,,,FF,,,,,,,,2,3.009315,,,,,,,,,,,,,,,,,,,,,,,,,,,4,-87,-26,1,0,0,response5disk,6,-2,-3,1,0,0,rectangle,-41,-85,1,0,0,3,3,"[68,38,37,321,25,250,73,77,243,188,249,296,11,223,252,46,316,130,161,288]",-1,-3,1,0,0,0,161,160,160,122,1,response5disk_3,rectangle,,,,,,,,,,,,,,,,,,,
,,,,,,,,,,,,,,,,,,,,,,,,,,,,,,,,,,,,,,,,,,,5f813d7e8973881f63254341,5fb5daaf5aa8461d3c2fd7a3,2020-11-18_23h40.09.657,Colour_Similarity_Experiment,2020.1.2,Win32,60,5fb5945709dec70f2d595766,,,,,,,,,,,,,,,,,,,,FF,,,,,,,,4,3.142245,,,,,,,,,,,,,,,,,,,,,,,,,,,1,42,-75,1,0,0,response3disk,3,-4,-5,1,0,0,rectangle,-4,-5,1,0,0,3,4,"[68,38,37,321,25,250,73,77,243,188,249,296,11,223,252,46,316,130,161,288]",-4,-5,1,0,0,0,162,161,161,99,1,,,,,,,,,,,,,,,,,,,,,
,,,,,,,,,,,,,,,,,,,,,,,,,,,,,,,,,,,,,,,,,,,5f813d7e8973881f63254341,5fb5daaf5aa8461d3c2fd7a3,2020-11-18_23h40.09.657,Colour_Similarity_Experiment,2020.1.2,Win32,60,5fb5945709dec70f2d595766,,,,,,,,,,,,,,,,,,,,,,,,,,,,,,,,,,,,,,,,,,,,,,,,,,,,,,,,,,,,,,,,,,,,,,,,,,,,,,,,,,,,,,,,,,,0,0,0,0,1,,,,,,,,,,,,,,
,,,,,,,,,,,,,,,,,,,,,,,,,,,,,,,,,,,,,,,,,,,5f813d7e8973881f63254341,5fb5daaf5aa8461d3c2fd7a3,2020-11-18_23h40.09.657,Colour_Similarity_Experiment,2020.1.2,Win32,60,5fb5945709dec70f2d595766,,,,,,,,,,,,,,,,,,,,PF,,,,,,,,1,2.187485,,,,,,,,,,,,,,,,,,,,,,,,,,,4,-58,33,1,0,0,response7disk,5,-9,2,1,0,0,rectangle,-9,2,1,0,0,3,4,"[68,38,37,321,25,250,73,77,243,188,249,296,11,223,252,46,316,130,161,288]",-9,2,1,0,0,0,163,0,0,49,1,,,,,,,,,,,,,,,,,,,,,
,,,,,,,,,,,,,,,,,,,,,,,,,,,,,,,,,,,,,,,,,,,5f813d7e8973881f63254341,5fb5daaf5aa8461d3c2fd7a3,2020-11-18_23h40.09.657,Colour_Similarity_Experiment,2020.1.2,Win32,60,5fb5945709dec70f2d595766,,,,,,,,,,,,,,,,,,,,PF,,,,,,,,4,2.6463,,,,,,,,,,,,,,,,,,,,,,,,,,,1,35,-82,1,0,0,response3disk,5,0,0,1,0,0,rectangle,0,0,1,0,0,3,0,"[68,38,37,321,25,250,73,77,243,188,249,296,11,223,252,46,316,130,161,288]",0,0,1,0,0,0,164,1,1,28,1,,,,,,,,,,,,,,,,,,,,,
,,,,,,,,,,,,,,,,,,,,,,,,,,,,,,,,,,,,,,,,,,,5f813d7e8973881f63254341,5fb5daaf5aa8461d3c2fd7a3,2020-11-18_23h40.09.657,Colour_Similarity_Experiment,2020.1.2,Win32,60,5fb5945709dec70f2d595766,,,,,,,,,,,,,,,,,,,,PF,,,,,,,,0,3.566285,,,,,,,,,,,,,,,,,,,,,,,,,,,3,-44,78,1,0,0,response7disk,2,1,1,1,0,0,rectangle,1,1,1,0,0,3,2,"[68,38,37,321,25,250,73,77,243,188,249,296,11,223,252,46,316,130,161,288]",1,1,1,0,0,0,165,2,2,36,1,,,,,,,,,,,,,,,,,,,,,
,,,,,,,,,,,,,,,,,,,,,,,,,,,,,,,,,,,,,,,,,,,5f813d7e8973881f63254341,5fb5daaf5aa8461d3c2fd7a3,2020-11-18_23h40.09.657,Colour_Similarity_Experiment,2020.1.2,Win32,60,5fb5945709dec70f2d595766,,,,,,,,,,,,,,,,,,,,PF,,,,,,,,1,2.2859,,,,,,,,,,,,,,,,,,,,,,,,,,,9,-75,38,1,0,0,response7disk,1,0,3,1,0,0,rectangle,0,3,1,0,0,3,4,"[68,38,37,321,25,250,73,77,243,188,249,296,11,223,252,46,316,130,161,288]",0,3,1,0,0,0,166,3,3,74,1,,,,,,,,,,,,,,,,,,,,,
,,,,,,,,,,,,,,,,,,,,,,,,,,,,,,,,,,,,,,,,,,,5f813d7e8973881f63254341,5fb5daaf5aa8461d3c2fd7a3,2020-11-18_23h40.09.657,Colour_Similarity_Experiment,2020.1.2,Win32,60,5fb5945709dec70f2d595766,,,,,,,,,,,,,,,,,,,,PF,,,,,,,,3,2.54259,,,,,,,,,,,,,,,,,,,,,,,,,,,3,-35,-79,1,0,0,response5disk,5,4,3,1,0,0,rectangle,4,3,1,0,0,3,4,"[68,38,37,321,25,250,73,77,243,188,249,296,11,223,252,46,316,130,161,288]",4,3,1,0,0,0,167,4,4,66,1,,,,,,,,,,,,,,,,,,,,,
,,,,,,,,,,,,,,,,,,,,,,,,,,,,,,,,,,,,,,,,,,,5f813d7e8973881f63254341,5fb5daaf5aa8461d3c2fd7a3,2020-11-18_23h40.09.657,Colour_Similarity_Experiment,2020.1.2,Win32,60,5fb5945709dec70f2d595766,,,,,,,,,,,,,,,,,,,,PF,,,,,,,,7,1.68966,,,,,,,,,,,,,,,,,,,,,,,,,,,8,32,69,1,0,0,response1disk,2,0,-1,1,0,0,rectangle,0,-1,1,0,0,3,4,"[68,38,37,321,25,250,73,77,243,188,249,296,11,223,252,46,316,130,161,288]",0,-1,1,0,0,0,168,5,5,83,1,,,,,,,,,,,,,,,,,,,,,
,,,,,,,,,,,,,,,,,,,,,,,,,,,,,,,,,,,,,,,,,,,5f813d7e8973881f63254341,5fb5daaf5aa8461d3c2fd7a3,2020-11-18_23h40.09.657,Colour_Similarity_Experiment,2020.1.2,Win32,60,5fb5945709dec70f2d595766,,,,,,,,,,,,,,,,,,,,PF,,,,,,,,0,2.34531,,,,,,,,,,,,,,,,,,,,,,,,,,,9,-41,85,1,0,0,response7disk,9,-5,6,1,0,0,rectangle,-5,6,1,0,0,3,6,"[68,38,37,321,25,250,73,77,243,188,249,296,11,223,252,46,316,130,161,288]",-5,6,1,0,0,0,169,6,6,106,1,,,,,,,,,,,,,,,,,,,,,
,,,,,,,,,,,,,,,,,,,,,,,,,,,,,,,,,,,,,,,,,,,5f813d7e8973881f63254341,5fb5daaf5aa8461d3c2fd7a3,2020-11-18_23h40.09.657,Colour_Similarity_Experiment,2020.1.2,Win32,60,5fb5945709dec70f2d595766,,,,,,,,,,,,,,,,,,,,FF,,,,,,,,0,1.5347,,,,,,,,,,,,,,,,,,,,,,,,,,,4,-38,71,1,0,0,response7disk,4,-5,1,1,0,0,rectangle,-5,1,1,0,0,3,0,"[68,38,37,321,25,250,73,77,243,188,249,296,11,223,252,46,316,130,161,288]",-5,1,1,0,0,0,170,7,7,84,1,,,,,,,,,,,,,,,,,,,,,
,,,,,,,,,,,,,,,,,,,,,,,,,,,,,,,,,,,,,,,,,,,5f813d7e8973881f63254341,5fb5daaf5aa8461d3c2fd7a3,2020-11-18_23h40.09.657,Colour_Similarity_Experiment,2020.1.2,Win32,60,5fb5945709dec70f2d595766,,,,,,,,,,,,,,,,,,,,PF,,,,,,,,1,1.955525,,,,,,,,,,,,,,,,,,,,,,,,,,,2,-85,40,1,0,0,response7disk,3,-7,5,1,0,0,rectangle,-7,5,1,0,0,3,0,"[68,38,37,321,25,250,73,77,243,188,249,296,11,223,252,46,316,130,161,288]",-7,5,1,0,0,0,171,8,8,69,1,,,,,,,,,,,,,,,,,,,,,
,,,,,,,,,,,,,,,,,,,,,,,,,,,,,,,,,,,,,,,,,,,5f813d7e8973881f63254341,5fb5daaf5aa8461d3c2fd7a3,2020-11-18_23h40.09.657,Colour_Similarity_Experiment,2020.1.2,Win32,60,5fb5945709dec70f2d595766,,,,,,,,,,,,,,,,,,,,FF,,,,,,,,4,2.66632,,,,,,,,,,,,,,,,,,,,,,,,,,,7,34,-72,1,0,0,response3disk,2,0,-4,1,0,0,rectangle,0,-4,1,0,0,3,2,"[68,38,37,321,25,250,73,77,243,188,249,296,11,223,252,46,316,130,161,288]",0,-4,1,0,0,0,172,9,9,138,1,,,,,,,,,,,,,,,,,,,,,
,,,,,,,,,,,,,,,,,,,,,,,,,,,,,,,,,,,,,,,,,,,5f813d7e8973881f63254341,5fb5daaf5aa8461d3c2fd7a3,2020-11-18_23h40.09.657,Colour_Similarity_Experiment,2020.1.2,Win32,60,5fb5945709dec70f2d595766,,,,,,,,,,,,,,,,,,,,FF,,,,,,,,1,2.12278,,,,,,,,,,,,,,,,,,,,,,,,,,,2,-91,47,1,0,0,response7disk,3,-3,2,1,0,0,rectangle,-3,2,1,0,0,3,7,"[68,38,37,321,25,250,73,77,243,188,249,296,11,223,252,46,316,130,161,288]",-3,2,1,0,0,0,173,10,10,104,1,,,,,,,,,,,,,,,,,,,,,
,,,,,,,,,,,,,,,,,,,,,,,,,,,,,,,,,,,,,,,,,,,5f813d7e8973881f63254341,5fb5daaf5aa8461d3c2fd7a3,2020-11-18_23h40.09.657,Colour_Similarity_Experiment,2020.1.2,Win32,60,5fb5945709dec70f2d595766,,,,,,,,,,,,,,,,,,,,PF,,,,,,,,0,1.889375,,,,,,,,,,,,,,,,,,,,,,,,,,,8,-31,69,1,0,0,response7disk,8,-3,6,1,0,0,rectangle,-3,6,1,0,0,3,3,"[68,38,37,321,25,250,73,77,243,188,249,296,11,223,252,46,316,130,161,288]",-3,6,1,0,0,0,174,11,11,153,1,,,,,,,,,,,,,,,,,,,,,
,,,,,,,,,,,,,,,,,,,,,,,,,,,,,,,,,,,,,,,,,,,5f813d7e8973881f63254341,5fb5daaf5aa8461d3c2fd7a3,2020-11-18_23h40.09.657,Colour_Similarity_Experiment,2020.1.2,Win32,60,5fb5945709dec70f2d595766,,,,,,,,,,,,,,,,,,,,PF,,,,,,,,5,2.994815,,,,,,,,,,,,,,,,,,,,,,,,,,,7,73,-35,1,0,0,response3disk,3,3,-5,1,0,0,rectangle,3,-5,1,0,0,3,4,"[68,38,37,321,25,250,73,77,243,188,249,296,11,223,252,46,316,130,161,288]",3,-5,1,0,0,0,175,12,12,81,1,,,,,,,,,,,,,,,,,,,,,
,,,,,,,,,,,,,,,,,,,,,,,,,,,,,,,,,,,,,,,,,,,5f813d7e8973881f63254341,5fb5daaf5aa8461d3c2fd7a3,2020-11-18_23h40.09.657,Colour_Similarity_Experiment,2020.1.2,Win32,60,5fb5945709dec70f2d595766,,,,,,,,,,,,,,,,,,,,FF,,,,,,,,5,2.322515,,,,,,,,,,,,,,,,,,,,,,,,,,,9,77,-39,1,0,0,response3disk,3,3,-1,1,0,0,rectangle,3,-1,1,0,0,3,6,"[68,38,37,321,25,250,73,77,243,188,249,296,11,223,252,46,316,130,161,288]",3,-1,1,0,0,0,176,13,13,141,1,,,,,,,,,,,,,,,,,,,,,
,,,,,,,,,,,,,,,,,,,,,,,,,,,,,,,,,,,,,,,,,,,5f813d7e8973881f63254341,5fb5daaf5aa8461d3c2fd7a3,2020-11-18_23h40.09.657,Colour_Similarity_Experiment,2020.1.2,Win32,60,5fb5945709dec70f2d595766,,,,,,,,,,,,,,,,,,,,PF,,,,,,,,1,1.778025,,,,,,,,,,,,,,,,,,,,,,,,,,,8,-76,35,1,0,0,response7disk,9,-2,4,1,0,0,rectangle,-2,4,1,0,0,3,6,"[68,38,37,321,25,250,73,77,243,188,249,296,11,223,252,46,316,130,161,288]",-2,4,1,0,0,0,177,14,14,42,1,,,,,,,,,,,,,,,,,,,,,
,,,,,,,,,,,,,,,,,,,,,,,,,,,,,,,,,,,,,,,,,,,5f813d7e8973881f63254341,5fb5daaf5aa8461d3c2fd7a3,2020-11-18_23h40.09.657,Colour_Similarity_Experiment,2020.1.2,Win32,60,5fb5945709dec70f2d595766,,,,,,,,,,,,,,,,,,,,PF,,,,,,,,6,2.564065,,,,,,,,,,,,,,,,,,,,,,,,,,,8,84,39,1,0,0,response1disk,4,4,5,1,0,0,rectangle,4,5,1,0,0,3,3,"[68,38,37,321,25,250,73,77,243,188,249,296,11,223,252,46,316,130,161,288]",4,5,1,0,0,0,178,15,15,78,1,,,,,,,,,,,,,,,,,,,,,
,,,,,,,,,,,,,,,,,,,,,,,,,,,,,,,,,,,,,,,,,,,5f813d7e8973881f63254341,5fb5daaf5aa8461d3c2fd7a3,2020-11-18_23h40.09.657,Colour_Similarity_Experiment,2020.1.2,Win32,60,5fb5945709dec70f2d595766,,,,,,,,,,,,,,,,,,,,FF,,,,,,,,4,3.159405,,,,,,,,,,,,,,,,,,,,,,,,,,,2,36,-84,1,0,0,response3disk,5,-1,-2,1,0,0,rectangle,-1,-2,1,0,0,3,4,"[68,38,37,321,25,250,73,77,243,188,249,296,11,223,252,46,316,130,161,288]",-1,-2,1,0,0,0,179,16,16,80,1,,,,,,,,,,,,,,,,,,,,,
,,,,,,,,,,,,,,,,,,,,,,,,,,,,,,,,,,,,,,,,,,,5f813d7e8973881f63254341,5fb5daaf5aa8461d3c2fd7a3,2020-11-18_23h40.09.657,Colour_Similarity_Experiment,2020.1.2,Win32,60,5fb5945709dec70f2d595766,,,,,,,,,,,,,,,,,,,,FF,,,,,,,,3,1.719455,,,,,,,,,,,,,,,,,,,,,,,,,,,3,-50,-93,1,0,0,response5disk,5,0,0,1,0,0,rectangle,0,0,1,0,0,3,2,"[68,38,37,321,25,250,73,77,243,188,249,296,11,223,252,46,316,130,161,288]",0,0,1,0,0,0,180,17,17,101,1,,,,,,,,,,,,,,,,,,,,,
,,,,,,,,,,,,,,,,,,,,,,,,,,,,,,,,,,,,,,,,,,,5f813d7e8973881f63254341,5fb5daaf5aa8461d3c2fd7a3,2020-11-18_23h40.09.657,Colour_Similarity_Experiment,2020.1.2,Win32,60,5fb5945709dec70f2d595766,,,,,,,,,,,,,,,,,,,,PF,,,,,,,,1,1.538645,,,,,,,,,,,,,,,,,,,,,,,,,,,3,-92,45,1,0,0,response7disk,3,4,-2,1,0,0,rectangle,4,-2,1,0,0,3,5,"[68,38,37,321,25,250,73,77,243,188,249,296,11,223,252,46,316,130,161,288]",4,-2,1,0,0,0,181,18,18,4,1,,,,,,,,,,,,,,,,,,,,,
,,,,,,,,,,,,,,,,,,,,,,,,,,,,,,,,,,,,,,,,,,,5f813d7e8973881f63254341,5fb5daaf5aa8461d3c2fd7a3,2020-11-18_23h40.09.657,Colour_Similarity_Experiment,2020.1.2,Win32,60,5fb5945709dec70f2d595766,,,,,,,,,,,,,,,,,,,,PF,,,,,,,,6,3.53888,,,,,,,,,,,,,,,,,,,,,,,,,,,8,84,33,1,0,0,response1disk,3,2,-4,1,0,0,rectangle,2,-4,1,0,0,3,3,"[68,38,37,321,25,250,73,77,243,188,249,296,11,223,252,46,316,130,161,288]",2,-4,1,0,0,0,182,19,19,71,1,,,,,,,,,,,,,,,,,,,,,
,,,,,,,,,,,,,,,,,,,,,,,,,,,,,,,,,,,,,,,,,,,5f813d7e8973881f63254341,5fb5daaf5aa8461d3c2fd7a3,2020-11-18_23h40.09.657,Colour_Similarity_Experiment,2020.1.2,Win32,60,5fb5945709dec70f2d595766,,,,,,,,,,,,,,,,,,,,FF,,,,,,,,0,1.41551,,,,,,,,,,,,,,,,,,,,,,,,,,,3,-39,66,1,0,0,response7disk,3,-5,9,1,0,0,rectangle,-5,9,1,0,0,3,3,"[68,38,37,321,25,250,73,77,243,188,249,296,11,223,252,46,316,130,161,288]",-5,9,1,0,0,0,183,20,20,68,1,,,,,,,,,,,,,,,,,,,,,
,,,,,,,,,,,,,,,,,,,,,,,,,,,,,,,,,,,,,,,,,,,5f813d7e8973881f63254341,5fb5daaf5aa8461d3c2fd7a3,2020-11-18_23h40.09.657,Colour_Similarity_Experiment,2020.1.2,Win32,60,5fb5945709dec70f2d595766,,,,,,,,,,,,,,,,,,,,FF,,,,,,,,2,3.08894,,,,,,,,,,,,,,,,,,,,,,,,,,,8,-89,-45,1,0,0,response5disk,6,-9,-5,1,0,0,rectangle,-9,-5,1,0,0,3,1,"[68,38,37,321,25,250,73,77,243,188,249,296,11,223,252,46,316,130,161,288]",-9,-5,1,0,0,0,184,21,21,37,1,,,,,,,,,,,,,,,,,,,,,
,,,,,,,,,,,,,,,,,,,,,,,,,,,,,,,,,,,,,,,,,,,5f813d7e8973881f63254341,5fb5daaf5aa8461d3c2fd7a3,2020-11-18_23h40.09.657,Colour_Similarity_Experiment,2020.1.2,Win32,60,5fb5945709dec70f2d595766,,,,,,,,,,,,,,,,,,,,FF,,,,,,,,1,1.84809,,,,,,,,,,,,,,,,,,,,,,,,,,,4,-97,44,1,0,0,response7disk,3,-9,-2,1,0,0,rectangle,-9,-2,1,0,0,3,7,"[68,38,37,321,25,250,73,77,243,188,249,296,11,223,252,46,316,130,161,288]",-9,-2,1,0,0,0,185,22,22,77,1,,,,,,,,,,,,,,,,,,,,,
,,,,,,,,,,,,,,,,,,,,,,,,,,,,,,,,,,,,,,,,,,,5f813d7e8973881f63254341,5fb5daaf5aa8461d3c2fd7a3,2020-11-18_23h40.09.657,Colour_Similarity_Experiment,2020.1.2,Win32,60,5fb5945709dec70f2d595766,,,,,,,,,,,,,,,,,,,,FF,,,,,,,,5,6.012345,,,,,,,,,,,,,,,,,,,,,,,,,,,4,75,-47,1,0,0,response3disk,8,0,-8,1,0,0,rectangle,0,-8,1,0,0,3,6,"[68,38,37,321,25,250,73,77,243,188,249,296,11,223,252,46,316,130,161,288]",0,-8,1,0,0,0,186,23,23,35,1,,,,,,,,,,,,,,,,,,,,,
,,,,,,,,,,,,,,,,,,,,,,,,,,,,,,,,,,,,,,,,,,,5f813d7e8973881f63254341,5fb5daaf5aa8461d3c2fd7a3,2020-11-18_23h40.09.657,Colour_Similarity_Experiment,2020.1.2,Win32,60,5fb5945709dec70f2d595766,,,,,,,,,,,,,,,,,,,,PF,,,,,,,,1,2.048585,,,,,,,,,,,,,,,,,,,,,,,,,,,8,-84,48,1,0,0,response7disk,7,-14,-1,1,0,0,rectangle,-14,-1,1,0,0,3,4,"[68,38,37,321,25,250,73,77,243,188,249,296,11,223,252,46,316,130,161,288]",-14,-1,1,0,0,0,187,24,24,23,1,,,,,,,,,,,,,,,,,,,,,
,,,,,,,,,,,,,,,,,,,,,,,,,,,,,,,,,,,,,,,,,,,5f813d7e8973881f63254341,5fb5daaf5aa8461d3c2fd7a3,2020-11-18_23h40.09.657,Colour_Similarity_Experiment,2020.1.2,Win32,60,5fb5945709dec70f2d595766,,,,,,,,,,,,,,,,,,,,FF,,,,,,,,2,2.89388,,,,,,,,,,,,,,,,,,,,,,,,,,,5,-77,-44,1,0,0,response5disk,8,6,4,1,0,0,rectangle,-89,-39,1,0,0,3,2,"[68,38,37,321,25,250,73,77,243,188,249,296,11,223,252,46,316,130,161,288]",-7,-6,1,0,0,0,188,25,25,16,1,response5disk_3,rectangle,,,,,,,,,,,,,,,,,,,
,,,,,,,,,,,,,,,,,,,,,,,,,,,,,,,,,,,,,,,,,,,5f813d7e8973881f63254341,5fb5daaf5aa8461d3c2fd7a3,2020-11-18_23h40.09.657,Colour_Similarity_Experiment,2020.1.2,Win32,60,5fb5945709dec70f2d595766,,,,,,,,,,,,,,,,,,,,PF,,,,,,,,6,3.182615,,,,,,,,,,,,,,,,,,,,,,,,,,,4,77,36,1,0,0,response1disk,1,2,4,1,0,0,rectangle,2,4,1,0,0,3,1,"[68,38,37,321,25,250,73,77,243,188,249,296,11,223,252,46,316,130,161,288]",2,4,1,0,0,0,189,26,26,115,1,,,,,,,,,,,,,,,,,,,,,
,,,,,,,,,,,,,,,,,,,,,,,,,,,,,,,,,,,,,,,,,,,5f813d7e8973881f63254341,5fb5daaf5aa8461d3c2fd7a3,2020-11-18_23h40.09.657,Colour_Similarity_Experiment,2020.1.2,Win32,60,5fb5945709dec70f2d595766,,,,,,,,,,,,,,,,,,,,FF,,,,,,,,1,2.635725,,,,,,,,,,,,,,,,,,,,,,,,,,,3,-77,40,1,0,0,response7disk,4,-7,1,1,0,0,rectangle,-7,1,1,0,0,3,3,"[68,38,37,321,25,250,73,77,243,188,249,296,11,223,252,46,316,130,161,288]",-7,1,1,0,0,0,190,27,27,110,1,,,,,,,,,,,,,,,,,,,,,
,,,,,,,,,,,,,,,,,,,,,,,,,,,,,,,,,,,,,,,,,,,5f813d7e8973881f63254341,5fb5daaf5aa8461d3c2fd7a3,2020-11-18_23h40.09.657,Colour_Similarity_Experiment,2020.1.2,Win32,60,5fb5945709dec70f2d595766,,,,,,,,,,,,,,,,,,,,PF,,,,,,,,2,1.89714,,,,,,,,,,,,,,,,,,,,,,,,,,,3,-77,-42,1,0,0,response5disk,4,-5,4,1,0,0,rectangle,-5,4,1,0,0,3,1,"[68,38,37,321,25,250,73,77,243,188,249,296,11,223,252,46,316,130,161,288]",-5,4,1,0,0,0,191,28,28,30,1,,,,,,,,,,,,,,,,,,,,,
,,,,,,,,,,,,,,,,,,,,,,,,,,,,,,,,,,,,,,,,,,,5f813d7e8973881f63254341,5fb5daaf5aa8461d3c2fd7a3,2020-11-18_23h40.09.657,Colour_Similarity_Experiment,2020.1.2,Win32,60,5fb5945709dec70f2d595766,,,,,,,,,,,,,,,,,,,,FF,,,,,,,,5,2.72121,,,,,,,,,,,,,,,,,,,,,,,,,,,3,77,-37,1,0,0,response3disk,8,0,-2,1,0,0,rectangle,0,-2,1,0,0,3,3,"[68,38,37,321,25,250,73,77,243,188,249,296,11,223,252,46,316,130,161,288]",0,-2,1,0,0,0,192,29,29,44,1,,,,,,,,,,,,,,,,,,,,,
,,,,,,,,,,,,,,,,,,,,,,,,,,,,,,,,,,,,,,,,,,,5f813d7e8973881f63254341,5fb5daaf5aa8461d3c2fd7a3,2020-11-18_23h40.09.657,Colour_Similarity_Experiment,2020.1.2,Win32,60,5fb5945709dec70f2d595766,,,,,,,,,,,,,,,,,,,,PF,,,,,,,,3,3.061245,,,,,,,,,,,,,,,,,,,,,,,,,,,4,-38,-73,1,0,0,response5disk,7,-10,-8,1,0,0,rectangle,-10,-8,1,0,0,3,7,"[68,38,37,321,25,250,73,77,243,188,249,296,11,223,252,46,316,130,161,288]",-10,-8,1,0,0,0,193,30,30,38,1,,,,,,,,,,,,,,,,,,,,,
,,,,,,,,,,,,,,,,,,,,,,,,,,,,,,,,,,,,,,,,,,,5f813d7e8973881f63254341,5fb5daaf5aa8461d3c2fd7a3,2020-11-18_23h40.09.657,Colour_Similarity_Experiment,2020.1.2,Win32,60,5fb5945709dec70f2d595766,,,,,,,,,,,,,,,,,,,,FF,,,,,,,,3,2.997935,,,,,,,,,,,,,,,,,,,,,,,,,,,6,-39,-74,1,0,0,response5disk,1,-1,1,1,0,0,rectangle,-1,1,1,0,0,3,3,"[68,38,37,321,25,250,73,77,243,188,249,296,11,223,252,46,316,130,161,288]",-1,1,1,0,0,0,194,31,31,5,1,,,,,,,,,,,,,,,,,,,,,
,,,,,,,,,,,,,,,,,,,,,,,,,,,,,,,,,,,,,,,,,,,5f813d7e8973881f63254341,5fb5daaf5aa8461d3c2fd7a3,2020-11-18_23h40.09.657,Colour_Similarity_Experiment,2020.1.2,Win32,60,5fb5945709dec70f2d595766,,,,,,,,,,,,,,,,,,,,FF,,,,,,,,2,3.579515,,,,,,,,,,,,,,,,,,,,,,,,,,,8,-88,-48,1,0,0,response5disk,5,-8,1,1,0,0,rectangle,-8,1,1,0,0,3,4,"[68,38,37,321,25,250,73,77,243,188,249,296,11,223,252,46,316,130,161,288]",-8,1,1,0,0,0,195,32,32,152,1,,,,,,,,,,,,,,,,,,,,,
,,,,,,,,,,,,,,,,,,,,,,,,,,,,,,,,,,,,,,,,,,,5f813d7e8973881f63254341,5fb5daaf5aa8461d3c2fd7a3,2020-11-18_23h40.09.657,Colour_Similarity_Experiment,2020.1.2,Win32,60,5fb5945709dec70f2d595766,,,,,,,,,,,,,,,,,,,,FF,,,,,,,,5,2.116105,,,,,,,,,,,,,,,,,,,,,,,,,,,2,73,-33,1,0,0,response3disk,8,-6,-2,1,0,0,rectangle,-6,-2,1,0,0,3,0,"[68,38,37,321,25,250,73,77,243,188,249,296,11,223,252,46,316,130,161,288]",-6,-2,1,0,0,0,196,33,33,62,1,,,,,,,,,,,,,,,,,,,,,
,,,,,,,,,,,,,,,,,,,,,,,,,,,,,,,,,,,,,,,,,,,5f813d7e8973881f63254341,5fb5daaf5aa8461d3c2fd7a3,2020-11-18_23h40.09.657,Colour_Similarity_Experiment,2020.1.2,Win32,60,5fb5945709dec70f2d595766,,,,,,,,,,,,,,,,,,,,FF,,,,,,,,1,2.402635,,,,,,,,,,,,,,,,,,,,,,,,,,,1,-97,53,1,0,0,response7disk,9,1,-2,1,0,0,rectangle,1,-2,1,0,0,3,0,"[68,38,37,321,25,250,73,77,243,188,249,296,11,223,252,46,316,130,161,288]",1,-2,1,0,0,0,197,34,34,123,1,,,,,,,,,,,,,,,,,,,,,
,,,,,,,,,,,,,,,,,,,,,,,,,,,,,,,,,,,,,,,,,,,5f813d7e8973881f63254341,5fb5daaf5aa8461d3c2fd7a3,2020-11-18_23h40.09.657,Colour_Similarity_Experiment,2020.1.2,Win32,60,5fb5945709dec70f2d595766,,,,,,,,,,,,,,,,,,,,FF,,,,,,,,0,1.96611,,,,,,,,,,,,,,,,,,,,,,,,,,,9,-37,70,1,0,0,response7disk,9,-2,0,1,0,0,rectangle,-2,0,1,0,0,3,2,"[68,38,37,321,25,250,73,77,243,188,249,296,11,223,252,46,316,130,161,288]",-2,0,1,0,0,0,198,35,35,17,1,,,,,,,,,,,,,,,,,,,,,
,,,,,,,,,,,,,,,,,,,,,,,,,,,,,,,,,,,,,,,,,,,5f813d7e8973881f63254341,5fb5daaf5aa8461d3c2fd7a3,2020-11-18_23h40.09.657,Colour_Similarity_Experiment,2020.1.2,Win32,60,5fb5945709dec70f2d595766,,,,,,,,,,,,,,,,,,,,PF,,,,,,,,5,5.76185,,,,,,,,,,,,,,,,,,,,,,,,,,,2,79,-41,1,0,0,response3disk,9,0,1,1,0,0,rectangle,0,1,1,0,0,3,0,"[68,38,37,321,25,250,73,77,243,188,249,296,11,223,252,46,316,130,161,288]",0,1,1,0,0,0,199,36,36,39,1,,,,,,,,,,,,,,,,,,,,,
,,,,,,,,,,,,,,,,,,,,,,,,,,,,,,,,,,,,,,,,,,,5f813d7e8973881f63254341,5fb5daaf5aa8461d3c2fd7a3,2020-11-18_23h40.09.657,Colour_Similarity_Experiment,2020.1.2,Win32,60,5fb5945709dec70f2d595766,,,,,,,,,,,,,,,,,,,,FF,,,,,,,,1,2.16425,,,,,,,,,,,,,,,,,,,,,,,,,,,7,-89,46,1,0,0,response7disk,6,-6,9,1,0,0,rectangle,-6,9,1,0,0,3,7,"[68,38,37,321,25,250,73,77,243,188,249,296,11,223,252,46,316,130,161,288]",-6,9,1,0,0,0,200,37,37,31,1,,,,,,,,,,,,,,,,,,,,,
,,,,,,,,,,,,,,,,,,,,,,,,,,,,,,,,,,,,,,,,,,,5f813d7e8973881f63254341,5fb5daaf5aa8461d3c2fd7a3,2020-11-18_23h40.09.657,Colour_Similarity_Experiment,2020.1.2,Win32,60,5fb5945709dec70f2d595766,,,,,,,,,,,,,,,,,,,,FF,,,,,,,,2,2.518115,,,,,,,,,,,,,,,,,,,,,,,,,,,8,-82,-56,1,0,0,response5disk,1,-2,-1,1,0,0,rectangle,-2,-1,1,0,0,3,1,"[68,38,37,321,25,250,73,77,243,188,249,296,11,223,252,46,316,130,161,288]",-2,-1,1,0,0,0,201,38,38,20,1,,,,,,,,,,,,,,,,,,,,,
,,,,,,,,,,,,,,,,,,,,,,,,,,,,,,,,,,,,,,,,,,,5f813d7e8973881f63254341,5fb5daaf5aa8461d3c2fd7a3,2020-11-18_23h40.09.657,Colour_Similarity_Experiment,2020.1.2,Win32,60,5fb5945709dec70f2d595766,,,,,,,,,,,,,,,,,,,,FF,,,,,,,,1,1.83059,,,,,,,,,,,,,,,,,,,,,,,,,,,8,-66,37,1,0,0,response7disk,9,-10,4,1,0,0,rectangle,-10,4,1,0,0,3,7,"[68,38,37,321,25,250,73,77,243,188,249,296,11,223,252,46,316,130,161,288]",-10,4,1,0,0,0,202,39,39,105,1,,,,,,,,,,,,,,,,,,,,,
,,,,,,,,,,,,,,,,,,,,,,,,,,,,,,,,,,,,,,,,,,,5f813d7e8973881f63254341,5fb5daaf5aa8461d3c2fd7a3,2020-11-18_23h40.09.657,Colour_Similarity_Experiment,2020.1.2,Win32,60,5fb5945709dec70f2d595766,,,,,,,,,,,,,,,,,,,,FF,,,,,,,,3,2.752565,,,,,,,,,,,,,,,,,,,,,,,,,,,3,-40,-92,1,0,0,response5disk,1,0,1,1,0,0,rectangle,0,1,1,0,0,3,5,"[68,38,37,321,25,250,73,77,243,188,249,296,11,223,252,46,316,130,161,288]",0,1,1,0,0,0,203,40,40,125,1,,,,,,,,,,,,,,,,,,,,,
,,,,,,,,,,,,,,,,,,,,,,,,,,,,,,,,,,,,,,,,,,,5f813d7e8973881f63254341,5fb5daaf5aa8461d3c2fd7a3,2020-11-18_23h40.09.657,Colour_Similarity_Experiment,2020.1.2,Win32,60,5fb5945709dec70f2d595766,,,,,,,,,,,,,,,,,,,,FF,,,,,,,,4,2.052565,,,,,,,,,,,,,,,,,,,,,,,,,,,2,45,-79,1,0,0,response3disk,6,1,-4,1,0,0,rectangle,1,-4,1,0,0,3,0,"[68,38,37,321,25,250,73,77,243,188,249,296,11,223,252,46,316,130,161,288]",1,-4,1,0,0,0,204,41,41,40,1,,,,,,,,,,,,,,,,,,,,,
,,,,,,,,,,,,,,,,,,,,,,,,,,,,,,,,,,,,,,,,,,,5f813d7e8973881f63254341,5fb5daaf5aa8461d3c2fd7a3,2020-11-18_23h40.09.657,Colour_Similarity_Experiment,2020.1.2,Win32,60,5fb5945709dec70f2d595766,,,,,,,,,,,,,,,,,,,,PF,,,,,,,,2,2.037615,,,,,,,,,,,,,,,,,,,,,,,,,,,2,-92,-41,1,0,0,response5disk,4,7,0,1,0,0,rectangle,7,0,1,0,0,3,6,"[68,38,37,321,25,250,73,77,243,188,249,296,11,223,252,46,316,130,161,288]",7,0,1,0,0,0,205,42,42,127,1,,,,,,,,,,,,,,,,,,,,,
,,,,,,,,,,,,,,,,,,,,,,,,,,,,,,,,,,,,,,,,,,,5f813d7e8973881f63254341,5fb5daaf5aa8461d3c2fd7a3,2020-11-18_23h40.09.657,Colour_Similarity_Experiment,2020.1.2,Win32,60,5fb5945709dec70f2d595766,,,,,,,,,,,,,,,,,,,,FF,,,,,,,,3,4.12011,,,,,,,,,,,,,,,,,,,,,,,,,,,1,-46,-82,1,0,0,response5disk,5,1,0,1,0,0,rectangle,1,0,1,0,0,3,7,"[68,38,37,321,25,250,73,77,243,188,249,296,11,223,252,46,316,130,161,288]",1,0,1,0,0,0,206,43,43,82,1,,,,,,,,,,,,,,,,,,,,,
