key_resp.keys,key_resp.rt,key_resp_16.keys,key_resp_16.rt,key_resp_2.keys,key_resp_2.rt,X Scale,ratio_pxpermm,screen_size_x,screen_size_y,testsize,key_resp_3.keys,key_resp_3.rt,key_resp_4.keys,key_resp_4.rt,line_size,key_resp_5.keys,key_resp_5.rt,key_resp_6.keys,key_resp_6.rt,key_resp_8.keys,key_resp_8.rt,key_resp_7.keys,key_resp_7.rt,key_resp_12.keys,key_resp_12.rt,key_resp_11.keys,key_resp_11.rt,key_resp_18.keys,key_resp_18.rt,key_resp_21.keys,key_resp_21.rt,key_resp_13.keys,key_resp_13.rt,key_resp_19.keys,key_resp_19.rt,ballposx,viewer_distance,trials.thisRepN,trials.thisTrialN,trials.thisN,trials.thisIndex,trials.ran,participant,session,date,expName,psychopyVersion,OS,frameRate,study_id,viewerdistancecm,DVA_to_distance,radius_F,radius_P,r_F,R_P,key_resp_20.keys,key_resp_20.rt,key_resp_14.keys,key_resp_14.rt,key_resp_15.keys,key_resp_15.rt,key_resp_17.keys,key_resp_17.rt,key_resp_9.keys,key_resp_9.rt,key_resp_10.keys,key_resp_10.rt,Colour_1,Ecc,mouse_5.x,mouse_5.y,mouse_5.leftButton,mouse_5.midButton,mouse_5.rightButton,mouse_5.clicked_name,Colour_2,similarity,response_time,mouse_10.x,mouse_10.y,mouse_10.leftButton,mouse_10.midButton,mouse_10.rightButton,mouse_10.clicked_name,mouse_7.x,mouse_7.y,mouse_7.leftButton,mouse_7.midButton,mouse_7.rightButton,catchnumberprac,mouse_6.x,mouse_6.y,mouse_6.leftButton,mouse_6.midButton,mouse_6.rightButton,duringprac.thisRepN,duringprac.thisTrialN,duringprac.thisN,duringprac.thisIndex,duringprac.ran,mouse_7.clicked_name,catchprac,mouse_6.clicked_name,key_resp_22.keys,key_resp_22.rt,Colour1,mouse.x,mouse.y,mouse.leftButton,mouse.midButton,mouse.rightButton,mouse.clicked_name,Colour2,mouse_2.x,mouse_2.y,mouse_2.leftButton,mouse_2.midButton,mouse_2.rightButton,mouse_2.clicked_name,mouse_3.x,mouse_3.y,mouse_3.leftButton,mouse_3.midButton,mouse_3.rightButton,catchresponse,catchnumber,catchtrialorder,mouse_11.x,mouse_11.y,mouse_11.leftButton,mouse_11.midButton,mouse_11.rightButton,trials_2.thisRepN,trialnumber,trials_2.thisTrialN,trials_2.thisN,trials_2.thisIndex,trials_2.ran,mouse_3.clicked_name,mouse_11.clicked_name,trials_3.thisRepN,trials_3.thisTrialN,trials_3.thisN,trials_3.thisIndex,trials_3.ran,answer1,rt1,answer2,rt2,answer3,rt3,answer4,rt4,answer5,rt5,answer6,rt6,answer7,rt7
space,2.053535,space,4.990335,space,2.64995,43.6,4.36,440.3669725,247.706422,1920,space,6.49503,space,7.649505,87.2,space,7.31866,space,4.87242,space,2.22865,space,6.220855,space,6.884445,space,8.813555,space,11.12508,space,1.392785,space,7.2667,return,6.593415,-702.72,1405.044026,0,0,0,0,1,5fa27915a7a32b44f3b2f44a,5fb5d8d42d9b681ceb7e4f98,2020-11-19_03h31.31.209,Colour_Similarity_Experiment,2020.1.2,Win32,60,5fb5945709dec70f2d595766,,,,,,,,,,,,,,,,,,,,,,,,,,,,,,,,,,,,,,,,,,,,,,,,,,,,,,,,,,,,,,,,,,,,,,,,,,,,,,,,,,,,,,,,,,,,,,,,,,,,,,,,,,,,,,
,,,,,,,,,,,,,,,,,,,,,,,,,,,,,,,,,,return,6.780885,-737.28,1438.060726,1,0,1,0,1,5fa27915a7a32b44f3b2f44a,5fb5d8d42d9b681ceb7e4f98,2020-11-19_03h31.31.209,Colour_Similarity_Experiment,2020.1.2,Win32,60,5fb5945709dec70f2d595766,,,,,,,,,,,,,,,,,,,,,,,,,,,,,,,,,,,,,,,,,,,,,,,,,,,,,,,,,,,,,,,,,,,,,,,,,,,,,,,,,,,,,,,,,,,,,,,,,,,,,,,,,,,,,,
,,,,,,,,,,,,,,,,,,,,,,,,,,,,,,,,,,return,4.733635,-302.4,1022.60058,2,0,2,0,1,5fa27915a7a32b44f3b2f44a,5fb5d8d42d9b681ceb7e4f98,2020-11-19_03h31.31.209,Colour_Similarity_Experiment,2020.1.2,Win32,60,5fb5945709dec70f2d595766,,,,,,,,,,,,,,,,,,,,,,,,,,,,,,,,,,,,,,,,,,,,,,,,,,,,,,,,,,,,,,,,,,,,,,,,,,,,,,,,,,,,,,,,,,,,,,,,,,,,,,,,,,,,,,
,,,,,,,,,,,,,,,,,,,,,,,,,,,,,,,,,,return,4.72956,-299.52,1019.849188,3,0,3,0,1,5fa27915a7a32b44f3b2f44a,5fb5d8d42d9b681ceb7e4f98,2020-11-19_03h31.31.209,Colour_Similarity_Experiment,2020.1.2,Win32,60,5fb5945709dec70f2d595766,,,,,,,,,,,,,,,,,,,,,,,,,,,,,,,,,,,,,,,,,,,,,,,,,,,,,,,,,,,,,,,,,,,,,,,,,,,,,,,,,,,,,,,,,,,,,,,,,,,,,,,,,,,,,,
,,,,,,,,,,,,,,,,,,,,,,,,,,,,,,,,,,return,4.28483,-207.36,931.804654,4,0,4,0,1,5fa27915a7a32b44f3b2f44a,5fb5d8d42d9b681ceb7e4f98,2020-11-19_03h31.31.209,Colour_Similarity_Experiment,2020.1.2,Win32,60,5fb5945709dec70f2d595766,,,,,,,,,,,,,,,,,,,,,,,,,,,,,,,,,,,,,,,,,,,,,,,,,,,,,,,,,,,,,,,,,,,,,,,,,,,,,,,,,,,,,,,,,,,,,,,,,,,,,,,,,,,,,,
,,,,,,,,,,,,,,,,,,,,,,,,,,,,,,,,,,,,,,,,,,,5fa27915a7a32b44f3b2f44a,5fb5d8d42d9b681ceb7e4f98,2020-11-19_03h31.31.209,Colour_Similarity_Experiment,2020.1.2,Win32,60,5fb5945709dec70f2d595766,116,20.24786808,132.4210572,882.8070481,88.28070481,397.2631716,space,3.673185,space,5.699195,space,2.86955,space,1.17664,space,1.16153,space,3.63082,9,FF,127,54,1,0,0,response1disk_5,5,6,15.74705,6,0,1,0,0,rectangle_8,6,0,1,0,0,5,6,0,1,0,0,0,0,0,5,1,,,,,,,,,,,,,,,,,,,,,,,,,,,,,,,,,,,,,,,,,,,,,,,,,,,,,,,,,,,
,,,,,,,,,,,,,,,,,,,,,,,,,,,,,,,,,,,,,,,,,,,5fa27915a7a32b44f3b2f44a,5fb5d8d42d9b681ceb7e4f98,2020-11-19_03h31.31.209,Colour_Similarity_Experiment,2020.1.2,Win32,60,5fb5945709dec70f2d595766,,,,,,,,,,,,,,,,,,,4,PF,54,137,1,0,0,response1disk_5,8,7,7.247975,15,3,1,0,0,rectangle_8,15,3,1,0,0,5,15,3,1,0,0,0,1,1,1,1,,,,,,,,,,,,,,,,,,,,,,,,,,,,,,,,,,,,,,,,,,,,,,,,,,,,,,,,,,,
,,,,,,,,,,,,,,,,,,,,,,,,,,,,,,,,,,,,,,,,,,,5fa27915a7a32b44f3b2f44a,5fb5d8d42d9b681ceb7e4f98,2020-11-19_03h31.31.209,Colour_Similarity_Experiment,2020.1.2,Win32,60,5fb5945709dec70f2d595766,,,,,,,,,,,,,,,,,,,7,PF,-65,141,1,0,0,response7disk_5,7,0,6.47558,11,-5,1,0,0,rectangle_8,11,-5,1,0,0,5,11,-5,1,0,0,0,2,2,2,1,,,,,,,,,,,,,,,,,,,,,,,,,,,,,,,,,,,,,,,,,,,,,,,,,,,,,,,,,,,
,,,,,,,,,,,,,,,,,,,,,,,,,,,,,,,,,,,,,,,,,,,5fa27915a7a32b44f3b2f44a,5fb5d8d42d9b681ceb7e4f98,2020-11-19_03h31.31.209,Colour_Similarity_Experiment,2020.1.2,Win32,60,5fb5945709dec70f2d595766,,,,,,,,,,,,,,,,,,,9,FF,58,138,1,0,0,response1disk_5,5,7,8.39872,0,0,1,0,0,rectangle_8,122,-49,1,0,0,5,24,5,1,0,0,0,3,3,3,1,response3disk_7,5,rectangle_4,,,,,,,,,,,,,,,,,,,,,,,,,,,,,,,,,,,,,,,,,,,,,,,,,,,,,,,,
,,,,,,,,,,,,,,,,,,,,,,,,,,,,,,,,,,,,,,,,,,,5fa27915a7a32b44f3b2f44a,5fb5d8d42d9b681ceb7e4f98,2020-11-19_03h31.31.209,Colour_Similarity_Experiment,2020.1.2,Win32,60,5fb5945709dec70f2d595766,,,,,,,,,,,,,,,,,,,3,PF,-63,-127,1,0,0,response5disk_5,5,3,5.876875,-24,10,1,0,0,rectangle_8,-24,10,1,0,0,5,-24,10,1,0,0,0,4,4,6,1,,,,,,,,,,,,,,,,,,,,,,,,,,,,,,,,,,,,,,,,,,,,,,,,,,,,,,,,,,,
,,,,,,,,,,,,,,,,,,,,,,,,,,,,,,,,,,,,,,,,,,,5fa27915a7a32b44f3b2f44a,5fb5d8d42d9b681ceb7e4f98,2020-11-19_03h31.31.209,Colour_Similarity_Experiment,2020.1.2,Win32,60,5fb5945709dec70f2d595766,,,,,,,,,,,,,,,,,,,9,PF,104,-40,1,0,0,response3disk_5,5,5,2.907855,0,5,1,0,0,rectangle_8,0,5,1,0,0,5,0,5,1,0,0,0,5,5,4,1,,,,,,,,,,,,,,,,,,,,,,,,,,,,,,,,,,,,,,,,,,,,,,,,,,,,,,,,,,,
,,,,,,,,,,,,,,,,,,,,,,,,,,,,,,,,,,,,,,,,,,,5fa27915a7a32b44f3b2f44a,5fb5d8d42d9b681ceb7e4f98,2020-11-19_03h31.31.209,Colour_Similarity_Experiment,2020.1.2,Win32,60,5fb5945709dec70f2d595766,,,,,,,,,,,,,,,,,,,9,FF,-47,-92,1,0,0,response5disk_5,8,3,2.423725,-15,9,1,0,0,rectangle_8,-15,9,1,0,0,5,-15,9,1,0,0,0,6,6,0,1,,,,,,,,,,,,,,,,,,,,,,,,,,,,,,,,,,,,,,,,,,,,,,,,,,,,,,,,,,,
,,,,,,,,,,,,,,,,,,,,,,,,,,,,,,,,,,,,,,,,,,,5fa27915a7a32b44f3b2f44a,5fb5d8d42d9b681ceb7e4f98,2020-11-19_03h31.31.209,Colour_Similarity_Experiment,2020.1.2,Win32,60,5fb5945709dec70f2d595766,,,,,,,,,,,,,,,,,,,,PF,,,,,,,,2,3.390875,,,,,,,,,,,,,,,,,,,,,,,,,,space,3.8144,4,-119,-45,1,0,0,response5disk,3,-4,-1,1,0,0,rectangle,-4,-1,1,0,0,,1,"[65,11,4,322,138,307,77,200,283,13,58,247,311,78,192,85,231,272,42,14]",-4,-1,1,0,0,0,1,0,0,89,1,,,,,,,,,,,,,,,,,,,,,
,,,,,,,,,,,,,,,,,,,,,,,,,,,,,,,,,,,,,,,,,,,5fa27915a7a32b44f3b2f44a,5fb5d8d42d9b681ceb7e4f98,2020-11-19_03h31.31.209,Colour_Similarity_Experiment,2020.1.2,Win32,60,5fb5945709dec70f2d595766,,,,,,,,,,,,,,,,,,,,PF,,,,,,,,4,4.953125,,,,,,,,,,,,,,,,,,,,,,,,,,,,4,49,-143,1,0,0,response3disk,2,-2,4,1,0,0,rectangle,-2,4,1,0,0,,5,"[65,11,4,322,138,307,77,200,283,13,58,247,311,78,192,85,231,272,42,14]",-2,4,1,0,0,0,2,1,1,108,1,,,,,,,,,,,,,,,,,,,,,
,,,,,,,,,,,,,,,,,,,,,,,,,,,,,,,,,,,,,,,,,,,5fa27915a7a32b44f3b2f44a,5fb5d8d42d9b681ceb7e4f98,2020-11-19_03h31.31.209,Colour_Similarity_Experiment,2020.1.2,Win32,60,5fb5945709dec70f2d595766,,,,,,,,,,,,,,,,,,,,FF,,,,,,,,4,4.79636,,,,,,,,,,,,,,,,,,,,,,,,,,,,4,50,-132,1,0,0,response3disk,5,2,3,1,0,0,rectangle,2,3,1,0,0,,5,"[65,11,4,322,138,307,77,200,283,13,58,247,311,78,192,85,231,272,42,14]",2,3,1,0,0,0,3,2,2,116,1,,,,,,,,,,,,,,,,,,,,,
,,,,,,,,,,,,,,,,,,,,,,,,,,,,,,,,,,,,,,,,,,,5fa27915a7a32b44f3b2f44a,5fb5d8d42d9b681ceb7e4f98,2020-11-19_03h31.31.209,Colour_Similarity_Experiment,2020.1.2,Win32,60,5fb5945709dec70f2d595766,,,,,,,,,,,,,,,,,,,,PF,,,,,,,,7,1.724665,,,,,,,,,,,,,,,,,,,,,,,,,,,,4,55,148,1,0,0,response1disk,7,9,8,1,0,0,rectangle,-59,145,1,0,0,0,0,"[65,11,4,322,138,307,77,200,283,13,58,247,311,78,192,85,231,272,42,14]",-5,-11,1,0,0,0,4,3,3,38,1,response7disk_3,rectangle,,,,,,,,,,,,,,,,,,,
,,,,,,,,,,,,,,,,,,,,,,,,,,,,,,,,,,,,,,,,,,,5fa27915a7a32b44f3b2f44a,5fb5d8d42d9b681ceb7e4f98,2020-11-19_03h31.31.209,Colour_Similarity_Experiment,2020.1.2,Win32,60,5fb5945709dec70f2d595766,,,,,,,,,,,,,,,,,,,,PF,,,,,,,,7,1.88556,,,,,,,,,,,,,,,,,,,,,,,,,,,,9,70,134,1,0,0,response1disk,6,-4,-2,1,0,0,rectangle,-4,-2,1,0,0,0,4,"[65,11,4,322,138,307,77,200,283,13,58,247,311,78,192,85,231,272,42,14]",-4,-2,1,0,0,0,5,4,4,148,1,,,,,,,,,,,,,,,,,,,,,
,,,,,,,,,,,,,,,,,,,,,,,,,,,,,,,,,,,,,,,,,,,5fa27915a7a32b44f3b2f44a,5fb5d8d42d9b681ceb7e4f98,2020-11-19_03h31.31.209,Colour_Similarity_Experiment,2020.1.2,Win32,60,5fb5945709dec70f2d595766,,,,,,,,,,,,,,,,,,,,PF,,,,,,,,6,2.92746,,,,,,,,,,,,,,,,,,,,,,,,,,,,7,136,55,1,0,0,response1disk,9,1,1,1,0,0,rectangle,1,1,1,0,0,0,5,"[65,11,4,322,138,307,77,200,283,13,58,247,311,78,192,85,231,272,42,14]",1,1,1,0,0,0,6,5,5,10,1,,,,,,,,,,,,,,,,,,,,,
,,,,,,,,,,,,,,,,,,,,,,,,,,,,,,,,,,,,,,,,,,,5fa27915a7a32b44f3b2f44a,5fb5d8d42d9b681ceb7e4f98,2020-11-19_03h31.31.209,Colour_Similarity_Experiment,2020.1.2,Win32,60,5fb5945709dec70f2d595766,,,,,,,,,,,,,,,,,,,,FF,,,,,,,,7,1.494105,,,,,,,,,,,,,,,,,,,,,,,,,,,,1,51,130,1,0,0,response1disk,6,11,8,1,0,0,rectangle,11,8,1,0,0,0,5,"[65,11,4,322,138,307,77,200,283,13,58,247,311,78,192,85,231,272,42,14]",11,8,1,0,0,0,7,6,6,58,1,,,,,,,,,,,,,,,,,,,,,
,,,,,,,,,,,,,,,,,,,,,,,,,,,,,,,,,,,,,,,,,,,5fa27915a7a32b44f3b2f44a,5fb5d8d42d9b681ceb7e4f98,2020-11-19_03h31.31.209,Colour_Similarity_Experiment,2020.1.2,Win32,60,5fb5945709dec70f2d595766,,,,,,,,,,,,,,,,,,,,PF,,,,,,,,7,1.14388,,,,,,,,,,,,,,,,,,,,,,,,,,,,3,61,146,1,0,0,response1disk,7,2,17,1,0,0,rectangle,2,17,1,0,0,0,1,"[65,11,4,322,138,307,77,200,283,13,58,247,311,78,192,85,231,272,42,14]",2,17,1,0,0,0,8,7,7,41,1,,,,,,,,,,,,,,,,,,,,,
,,,,,,,,,,,,,,,,,,,,,,,,,,,,,,,,,,,,,,,,,,,5fa27915a7a32b44f3b2f44a,5fb5d8d42d9b681ceb7e4f98,2020-11-19_03h31.31.209,Colour_Similarity_Experiment,2020.1.2,Win32,60,5fb5945709dec70f2d595766,,,,,,,,,,,,,,,,,,,,FF,,,,,,,,0,1.86572,,,,,,,,,,,,,,,,,,,,,,,,,,,,4,-55,145,1,0,0,response7disk,3,-6,9,1,0,0,rectangle,-6,9,1,0,0,0,1,"[65,11,4,322,138,307,77,200,283,13,58,247,311,78,192,85,231,272,42,14]",-6,9,1,0,0,0,9,8,8,77,1,,,,,,,,,,,,,,,,,,,,,
,,,,,,,,,,,,,,,,,,,,,,,,,,,,,,,,,,,,,,,,,,,5fa27915a7a32b44f3b2f44a,5fb5d8d42d9b681ceb7e4f98,2020-11-19_03h31.31.209,Colour_Similarity_Experiment,2020.1.2,Win32,60,5fb5945709dec70f2d595766,,,,,,,,,,,,,,,,,,,,PF,,,,,,,,4,2.184575,,,,,,,,,,,,,,,,,,,,,,,,,,,,2,54,-105,1,0,0,response3disk,3,15,4,1,0,0,rectangle,15,4,1,0,0,0,7,"[65,11,4,322,138,307,77,200,283,13,58,247,311,78,192,85,231,272,42,14]",15,4,1,0,0,0,10,9,9,69,1,,,,,,,,,,,,,,,,,,,,,
,,,,,,,,,,,,,,,,,,,,,,,,,,,,,,,,,,,,,,,,,,,5fa27915a7a32b44f3b2f44a,5fb5d8d42d9b681ceb7e4f98,2020-11-19_03h31.31.209,Colour_Similarity_Experiment,2020.1.2,Win32,60,5fb5945709dec70f2d595766,,,,,,,,,,,,,,,,,,,,FF,,,,,,,,7,1.293985,,,,,,,,,,,,,,,,,,,,,,,,,,,,8,53,157,1,0,0,response1disk,3,7,13,1,0,0,rectangle,-102,49,1,0,0,1,1,"[65,11,4,322,138,307,77,200,283,13,58,247,311,78,192,85,231,272,42,14]",15,0,1,0,0,0,11,10,10,154,1,response7disk_3,rectangle,,,,,,,,,,,,,,,,,,,
,,,,,,,,,,,,,,,,,,,,,,,,,,,,,,,,,,,,,,,,,,,5fa27915a7a32b44f3b2f44a,5fb5d8d42d9b681ceb7e4f98,2020-11-19_03h31.31.209,Colour_Similarity_Experiment,2020.1.2,Win32,60,5fb5945709dec70f2d595766,,,,,,,,,,,,,,,,,,,,FF,,,,,,,,7,1.565245,,,,,,,,,,,,,,,,,,,,,,,,,,,,8,44,136,1,0,0,response1disk,2,-3,20,1,0,0,rectangle,-3,20,1,0,0,1,1,"[65,11,4,322,138,307,77,200,283,13,58,247,311,78,192,85,231,272,42,14]",-3,20,1,0,0,0,12,11,11,22,1,,,,,,,,,,,,,,,,,,,,,
,,,,,,,,,,,,,,,,,,,,,,,,,,,,,,,,,,,,,,,,,,,5fa27915a7a32b44f3b2f44a,5fb5d8d42d9b681ceb7e4f98,2020-11-19_03h31.31.209,Colour_Similarity_Experiment,2020.1.2,Win32,60,5fb5945709dec70f2d595766,,,,,,,,,,,,,,,,,,,,FF,,,,,,,,7,1.176035,,,,,,,,,,,,,,,,,,,,,,,,,,,,4,54,136,1,0,0,response1disk,6,5,7,1,0,0,rectangle,113,-38,1,0,0,5,5,"[65,11,4,322,138,307,77,200,283,13,58,247,311,78,192,85,231,272,42,14]",25,9,1,0,0,0,13,12,12,122,1,response3disk_3,rectangle,,,,,,,,,,,,,,,,,,,
,,,,,,,,,,,,,,,,,,,,,,,,,,,,,,,,,,,,,,,,,,,5fa27915a7a32b44f3b2f44a,5fb5d8d42d9b681ceb7e4f98,2020-11-19_03h31.31.209,Colour_Similarity_Experiment,2020.1.2,Win32,60,5fb5945709dec70f2d595766,,,,,,,,,,,,,,,,,,,,PF,,,,,,,,7,1.677445,,,,,,,,,,,,,,,,,,,,,,,,,,,,2,59,131,1,0,0,response1disk,4,7,2,1,0,0,rectangle,-52,-122,1,0,0,3,3,"[65,11,4,322,138,307,77,200,283,13,58,247,311,78,192,85,231,272,42,14]",13,6,1,0,0,0,14,13,13,127,1,response5disk_3,rectangle,,,,,,,,,,,,,,,,,,,
,,,,,,,,,,,,,,,,,,,,,,,,,,,,,,,,,,,,,,,,,,,5fa27915a7a32b44f3b2f44a,5fb5d8d42d9b681ceb7e4f98,2020-11-19_03h31.31.209,Colour_Similarity_Experiment,2020.1.2,Win32,60,5fb5945709dec70f2d595766,,,,,,,,,,,,,,,,,,,,PF,,,,,,,,7,0.99965,,,,,,,,,,,,,,,,,,,,,,,,,,,,8,54,139,1,0,0,response1disk,2,-9,-6,1,0,0,rectangle,-9,-6,1,0,0,3,5,"[65,11,4,322,138,307,77,200,283,13,58,247,311,78,192,85,231,272,42,14]",-9,-6,1,0,0,0,15,14,14,83,1,,,,,,,,,,,,,,,,,,,,,
,,,,,,,,,,,,,,,,,,,,,,,,,,,,,,,,,,,,,,,,,,,5fa27915a7a32b44f3b2f44a,5fb5d8d42d9b681ceb7e4f98,2020-11-19_03h31.31.209,Colour_Similarity_Experiment,2020.1.2,Win32,60,5fb5945709dec70f2d595766,,,,,,,,,,,,,,,,,,,,FF,,,,,,,,7,1.72833,,,,,,,,,,,,,,,,,,,,,,,,,,,,6,46,131,1,0,0,response1disk,8,7,-3,1,0,0,rectangle,7,-3,1,0,0,3,4,"[65,11,4,322,138,307,77,200,283,13,58,247,311,78,192,85,231,272,42,14]",7,-3,1,0,0,0,16,15,15,133,1,,,,,,,,,,,,,,,,,,,,,
,,,,,,,,,,,,,,,,,,,,,,,,,,,,,,,,,,,,,,,,,,,5fa27915a7a32b44f3b2f44a,5fb5d8d42d9b681ceb7e4f98,2020-11-19_03h31.31.209,Colour_Similarity_Experiment,2020.1.2,Win32,60,5fb5945709dec70f2d595766,,,,,,,,,,,,,,,,,,,,PF,,,,,,,,7,1.16736,,,,,,,,,,,,,,,,,,,,,,,,,,,,4,48,115,1,0,0,response1disk,8,12,18,1,0,0,rectangle,12,18,1,0,0,3,0,"[65,11,4,322,138,307,77,200,283,13,58,247,311,78,192,85,231,272,42,14]",12,18,1,0,0,0,17,16,16,124,1,,,,,,,,,,,,,,,,,,,,,
,,,,,,,,,,,,,,,,,,,,,,,,,,,,,,,,,,,,,,,,,,,5fa27915a7a32b44f3b2f44a,5fb5d8d42d9b681ceb7e4f98,2020-11-19_03h31.31.209,Colour_Similarity_Experiment,2020.1.2,Win32,60,5fb5945709dec70f2d595766,,,,,,,,,,,,,,,,,,,,FF,,,,,,,,1,1.876115,,,,,,,,,,,,,,,,,,,,,,,,,,,,3,-139,52,1,0,0,response7disk,4,-6,-2,1,0,0,rectangle,-6,-2,1,0,0,3,5,"[65,11,4,322,138,307,77,200,283,13,58,247,311,78,192,85,231,272,42,14]",-6,-2,1,0,0,0,18,17,17,110,1,,,,,,,,,,,,,,,,,,,,,
,,,,,,,,,,,,,,,,,,,,,,,,,,,,,,,,,,,,,,,,,,,5fa27915a7a32b44f3b2f44a,5fb5d8d42d9b681ceb7e4f98,2020-11-19_03h31.31.209,Colour_Similarity_Experiment,2020.1.2,Win32,60,5fb5945709dec70f2d595766,,,,,,,,,,,,,,,,,,,,FF,,,,,,,,7,1.00803,,,,,,,,,,,,,,,,,,,,,,,,,,,,1,54,130,1,0,0,response1disk,5,15,4,1,0,0,rectangle,15,4,1,0,0,3,2,"[65,11,4,322,138,307,77,200,283,13,58,247,311,78,192,85,231,272,42,14]",15,4,1,0,0,0,19,18,18,82,1,,,,,,,,,,,,,,,,,,,,,
,,,,,,,,,,,,,,,,,,,,,,,,,,,,,,,,,,,,,,,,,,,5fa27915a7a32b44f3b2f44a,5fb5d8d42d9b681ceb7e4f98,2020-11-19_03h31.31.209,Colour_Similarity_Experiment,2020.1.2,Win32,60,5fb5945709dec70f2d595766,,,,,,,,,,,,,,,,,,,,PF,,,,,,,,7,1.16778,,,,,,,,,,,,,,,,,,,,,,,,,,,,6,49,140,1,0,0,response1disk,4,-2,-2,1,0,0,rectangle,-2,-2,1,0,0,3,2,"[65,11,4,322,138,307,77,200,283,13,58,247,311,78,192,85,231,272,42,14]",-2,-2,1,0,0,0,20,19,19,33,1,,,,,,,,,,,,,,,,,,,,,
,,,,,,,,,,,,,,,,,,,,,,,,,,,,,,,,,,,,,,,,,,,5fa27915a7a32b44f3b2f44a,5fb5d8d42d9b681ceb7e4f98,2020-11-19_03h31.31.209,Colour_Similarity_Experiment,2020.1.2,Win32,60,5fb5945709dec70f2d595766,,,,,,,,,,,,,,,,,,,,FF,,,,,,,,7,1.180405,,,,,,,,,,,,,,,,,,,,,,,,,,,,6,50,115,1,0,0,response1disk,9,8,13,1,0,0,rectangle,8,13,1,0,0,3,5,"[65,11,4,322,138,307,77,200,283,13,58,247,311,78,192,85,231,272,42,14]",8,13,1,0,0,0,21,20,20,160,1,,,,,,,,,,,,,,,,,,,,,
,,,,,,,,,,,,,,,,,,,,,,,,,,,,,,,,,,,,,,,,,,,5fa27915a7a32b44f3b2f44a,5fb5d8d42d9b681ceb7e4f98,2020-11-19_03h31.31.209,Colour_Similarity_Experiment,2020.1.2,Win32,60,5fb5945709dec70f2d595766,,,,,,,,,,,,,,,,,,,,PF,,,,,,,,7,0.867105,,,,,,,,,,,,,,,,,,,,,,,,,,,,3,67,121,1,0,0,response1disk,6,15,1,1,0,0,rectangle,15,1,1,0,0,3,5,"[65,11,4,322,138,307,77,200,283,13,58,247,311,78,192,85,231,272,42,14]",15,1,1,0,0,0,22,21,21,47,1,,,,,,,,,,,,,,,,,,,,,
,,,,,,,,,,,,,,,,,,,,,,,,,,,,,,,,,,,,,,,,,,,5fa27915a7a32b44f3b2f44a,5fb5d8d42d9b681ceb7e4f98,2020-11-19_03h31.31.209,Colour_Similarity_Experiment,2020.1.2,Win32,60,5fb5945709dec70f2d595766,,,,,,,,,,,,,,,,,,,,PF,,,,,,,,7,1.493575,,,,,,,,,,,,,,,,,,,,,,,,,,,,9,53,150,1,0,0,response1disk,2,8,10,1,0,0,rectangle,8,10,1,0,0,3,3,"[65,11,4,322,138,307,77,200,283,13,58,247,311,78,192,85,231,272,42,14]",8,10,1,0,0,0,23,22,22,157,1,,,,,,,,,,,,,,,,,,,,,
,,,,,,,,,,,,,,,,,,,,,,,,,,,,,,,,,,,,,,,,,,,5fa27915a7a32b44f3b2f44a,5fb5d8d42d9b681ceb7e4f98,2020-11-19_03h31.31.209,Colour_Similarity_Experiment,2020.1.2,Win32,60,5fb5945709dec70f2d595766,,,,,,,,,,,,,,,,,,,,FF,,,,,,,,7,0.92444,,,,,,,,,,,,,,,,,,,,,,,,,,,,7,65,163,1,0,0,response1disk,1,10,15,1,0,0,rectangle,10,15,1,0,0,3,3,"[65,11,4,322,138,307,77,200,283,13,58,247,311,78,192,85,231,272,42,14]",10,15,1,0,0,0,24,23,23,132,1,,,,,,,,,,,,,,,,,,,,,
,,,,,,,,,,,,,,,,,,,,,,,,,,,,,,,,,,,,,,,,,,,5fa27915a7a32b44f3b2f44a,5fb5d8d42d9b681ceb7e4f98,2020-11-19_03h31.31.209,Colour_Similarity_Experiment,2020.1.2,Win32,60,5fb5945709dec70f2d595766,,,,,,,,,,,,,,,,,,,,FF,,,,,,,,7,1.190475,,,,,,,,,,,,,,,,,,,,,,,,,,,,4,48,145,1,0,0,response1disk,7,7,14,1,0,0,rectangle,7,14,1,0,0,3,7,"[65,11,4,322,138,307,77,200,283,13,58,247,311,78,192,85,231,272,42,14]",7,14,1,0,0,0,25,24,24,87,1,,,,,,,,,,,,,,,,,,,,,
,,,,,,,,,,,,,,,,,,,,,,,,,,,,,,,,,,,,,,,,,,,5fa27915a7a32b44f3b2f44a,5fb5d8d42d9b681ceb7e4f98,2020-11-19_03h31.31.209,Colour_Similarity_Experiment,2020.1.2,Win32,60,5fb5945709dec70f2d595766,,,,,,,,,,,,,,,,,,,,PF,,,,,,,,7,0.878225,,,,,,,,,,,,,,,,,,,,,,,,,,,,3,58,146,1,0,0,response1disk,8,5,-8,1,0,0,rectangle,5,-8,1,0,0,3,4,"[65,11,4,322,138,307,77,200,283,13,58,247,311,78,192,85,231,272,42,14]",5,-8,1,0,0,0,26,25,25,3,1,,,,,,,,,,,,,,,,,,,,,
,,,,,,,,,,,,,,,,,,,,,,,,,,,,,,,,,,,,,,,,,,,5fa27915a7a32b44f3b2f44a,5fb5d8d42d9b681ceb7e4f98,2020-11-19_03h31.31.209,Colour_Similarity_Experiment,2020.1.2,Win32,60,5fb5945709dec70f2d595766,,,,,,,,,,,,,,,,,,,,PF,,,,,,,,7,2.028295,,,,,,,,,,,,,,,,,,,,,,,,,,,,5,56,151,1,0,0,response1disk,6,3,8,1,0,0,rectangle,3,8,1,0,0,3,4,"[65,11,4,322,138,307,77,200,283,13,58,247,311,78,192,85,231,272,42,14]",3,8,1,0,0,0,27,26,26,103,1,,,,,,,,,,,,,,,,,,,,,
,,,,,,,,,,,,,,,,,,,,,,,,,,,,,,,,,,,,,,,,,,,5fa27915a7a32b44f3b2f44a,5fb5d8d42d9b681ceb7e4f98,2020-11-19_03h31.31.209,Colour_Similarity_Experiment,2020.1.2,Win32,60,5fb5945709dec70f2d595766,,,,,,,,,,,,,,,,,,,,FF,,,,,,,,7,1.16406,,,,,,,,,,,,,,,,,,,,,,,,,,,,8,65,154,1,0,0,response1disk,5,8,1,1,0,0,rectangle,8,1,1,0,0,3,4,"[65,11,4,322,138,307,77,200,283,13,58,247,311,78,192,85,231,272,42,14]",8,1,1,0,0,0,28,27,27,152,1,,,,,,,,,,,,,,,,,,,,,
,,,,,,,,,,,,,,,,,,,,,,,,,,,,,,,,,,,,,,,,,,,5fa27915a7a32b44f3b2f44a,5fb5d8d42d9b681ceb7e4f98,2020-11-19_03h31.31.209,Colour_Similarity_Experiment,2020.1.2,Win32,60,5fb5945709dec70f2d595766,,,,,,,,,,,,,,,,,,,,FF,,,,,,,,0,1.16443,,,,,,,,,,,,,,,,,,,,,,,,,,,,4,-47,143,1,0,0,response7disk,4,0,18,1,0,0,rectangle,0,18,1,0,0,3,5,"[65,11,4,322,138,307,77,200,283,13,58,247,311,78,192,85,231,272,42,14]",0,18,1,0,0,0,29,28,28,84,1,,,,,,,,,,,,,,,,,,,,,
,,,,,,,,,,,,,,,,,,,,,,,,,,,,,,,,,,,,,,,,,,,5fa27915a7a32b44f3b2f44a,5fb5d8d42d9b681ceb7e4f98,2020-11-19_03h31.31.209,Colour_Similarity_Experiment,2020.1.2,Win32,60,5fb5945709dec70f2d595766,,,,,,,,,,,,,,,,,,,,FF,,,,,,,,7,0.70645,,,,,,,,,,,,,,,,,,,,,,,,,,,,6,44,145,1,0,0,response1disk,4,-8,18,1,0,0,rectangle,-8,18,1,0,0,3,3,"[65,11,4,322,138,307,77,200,283,13,58,247,311,78,192,85,231,272,42,14]",-8,18,1,0,0,0,30,29,29,56,1,,,,,,,,,,,,,,,,,,,,,
,,,,,,,,,,,,,,,,,,,,,,,,,,,,,,,,,,,,,,,,,,,5fa27915a7a32b44f3b2f44a,5fb5d8d42d9b681ceb7e4f98,2020-11-19_03h31.31.209,Colour_Similarity_Experiment,2020.1.2,Win32,60,5fb5945709dec70f2d595766,,,,,,,,,,,,,,,,,,,,PF,,,,,,,,7,0.87739,,,,,,,,,,,,,,,,,,,,,,,,,,,,9,53,141,1,0,0,response1disk,4,7,11,1,0,0,rectangle,7,11,1,0,0,3,1,"[65,11,4,322,138,307,77,200,283,13,58,247,311,78,192,85,231,272,42,14]",7,11,1,0,0,0,31,30,30,114,1,,,,,,,,,,,,,,,,,,,,,
,,,,,,,,,,,,,,,,,,,,,,,,,,,,,,,,,,,,,,,,,,,5fa27915a7a32b44f3b2f44a,5fb5d8d42d9b681ceb7e4f98,2020-11-19_03h31.31.209,Colour_Similarity_Experiment,2020.1.2,Win32,60,5fb5945709dec70f2d595766,,,,,,,,,,,,,,,,,,,,FF,,,,,,,,7,3.64675,,,,,,,,,,,,,,,,,,,,,,,,,,,,2,60,164,1,0,0,response1disk,3,3,13,1,0,0,rectangle,3,13,1,0,0,3,1,"[65,11,4,322,138,307,77,200,283,13,58,247,311,78,192,85,231,272,42,14]",3,13,1,0,0,0,32,31,31,104,1,,,,,,,,,,,,,,,,,,,,,
,,,,,,,,,,,,,,,,,,,,,,,,,,,,,,,,,,,,,,,,,,,5fa27915a7a32b44f3b2f44a,5fb5d8d42d9b681ceb7e4f98,2020-11-19_03h31.31.209,Colour_Similarity_Experiment,2020.1.2,Win32,60,5fb5945709dec70f2d595766,,,,,,,,,,,,,,,,,,,,PF,,,,,,,,0,1.992645,,,,,,,,,,,,,,,,,,,,,,,,,,,,3,-50,130,1,0,0,response7disk,3,-10,17,1,0,0,rectangle,-10,17,1,0,0,3,2,"[65,11,4,322,138,307,77,200,283,13,58,247,311,78,192,85,231,272,42,14]",-10,17,1,0,0,0,33,32,32,4,1,,,,,,,,,,,,,,,,,,,,,
,,,,,,,,,,,,,,,,,,,,,,,,,,,,,,,,,,,,,,,,,,,5fa27915a7a32b44f3b2f44a,5fb5d8d42d9b681ceb7e4f98,2020-11-19_03h31.31.209,Colour_Similarity_Experiment,2020.1.2,Win32,60,5fb5945709dec70f2d595766,,,,,,,,,,,,,,,,,,,,FF,,,,,,,,7,2.42037,,,,,,,,,,,,,,,,,,,,,,,,,,,,3,60,153,1,0,0,response1disk,2,5,13,1,0,0,rectangle,5,13,1,0,0,3,2,"[65,11,4,322,138,307,77,200,283,13,58,247,311,78,192,85,231,272,42,14]",5,13,1,0,0,0,34,33,33,93,1,,,,,,,,,,,,,,,,,,,,,
,,,,,,,,,,,,,,,,,,,,,,,,,,,,,,,,,,,,,,,,,,,5fa27915a7a32b44f3b2f44a,5fb5d8d42d9b681ceb7e4f98,2020-11-19_03h31.31.209,Colour_Similarity_Experiment,2020.1.2,Win32,60,5fb5945709dec70f2d595766,,,,,,,,,,,,,,,,,,,,PF,,,,,,,,7,2.8799,,,,,,,,,,,,,,,,,,,,,,,,,,,,2,75,145,1,0,0,response1disk,6,2,11,1,0,0,rectangle,2,11,1,0,0,3,4,"[65,11,4,322,138,307,77,200,283,13,58,247,311,78,192,85,231,272,42,14]",2,11,1,0,0,0,35,34,34,113,1,,,,,,,,,,,,,,,,,,,,,
,,,,,,,,,,,,,,,,,,,,,,,,,,,,,,,,,,,,,,,,,,,5fa27915a7a32b44f3b2f44a,5fb5d8d42d9b681ceb7e4f98,2020-11-19_03h31.31.209,Colour_Similarity_Experiment,2020.1.2,Win32,60,5fb5945709dec70f2d595766,,,,,,,,,,,,,,,,,,,,FF,,,,,,,,7,0.762845,,,,,,,,,,,,,,,,,,,,,,,,,,,,7,36,135,1,0,0,response1disk,3,11,-3,1,0,0,rectangle,11,-3,1,0,0,3,0,"[65,11,4,322,138,307,77,200,283,13,58,247,311,78,192,85,231,272,42,14]",11,-3,1,0,0,0,36,35,35,73,1,,,,,,,,,,,,,,,,,,,,,
,,,,,,,,,,,,,,,,,,,,,,,,,,,,,,,,,,,,,,,,,,,5fa27915a7a32b44f3b2f44a,5fb5d8d42d9b681ceb7e4f98,2020-11-19_03h31.31.209,Colour_Similarity_Experiment,2020.1.2,Win32,60,5fb5945709dec70f2d595766,,,,,,,,,,,,,,,,,,,,FF,,,,,,,,7,1.76758,,,,,,,,,,,,,,,,,,,,,,,,,,,,8,62,138,1,0,0,response1disk,6,5,13,1,0,0,rectangle,5,13,1,0,0,3,3,"[65,11,4,322,138,307,77,200,283,13,58,247,311,78,192,85,231,272,42,14]",5,13,1,0,0,0,37,36,36,37,1,,,,,,,,,,,,,,,,,,,,,
,,,,,,,,,,,,,,,,,,,,,,,,,,,,,,,,,,,,,,,,,,,5fa27915a7a32b44f3b2f44a,5fb5d8d42d9b681ceb7e4f98,2020-11-19_03h31.31.209,Colour_Similarity_Experiment,2020.1.2,Win32,60,5fb5945709dec70f2d595766,,,,,,,,,,,,,,,,,,,,FF,,,,,,,,7,1.45556,,,,,,,,,,,,,,,,,,,,,,,,,,,,6,46,145,1,0,0,response1disk,1,18,16,1,0,0,rectangle,18,16,1,0,0,3,2,"[65,11,4,322,138,307,77,200,283,13,58,247,311,78,192,85,231,272,42,14]",18,16,1,0,0,0,38,37,37,5,1,,,,,,,,,,,,,,,,,,,,,
,,,,,,,,,,,,,,,,,,,,,,,,,,,,,,,,,,,,,,,,,,,5fa27915a7a32b44f3b2f44a,5fb5d8d42d9b681ceb7e4f98,2020-11-19_03h31.31.209,Colour_Similarity_Experiment,2020.1.2,Win32,60,5fb5945709dec70f2d595766,,,,,,,,,,,,,,,,,,,,PF,,,,,,,,7,0.87859,,,,,,,,,,,,,,,,,,,,,,,,,,,,1,59,146,1,0,0,response1disk,8,12,7,1,0,0,rectangle,12,7,1,0,0,3,0,"[65,11,4,322,138,307,77,200,283,13,58,247,311,78,192,85,231,272,42,14]",12,7,1,0,0,0,39,38,38,65,1,,,,,,,,,,,,,,,,,,,,,
,,,,,,,,,,,,,,,,,,,,,,,,,,,,,,,,,,,,,,,,,,,5fa27915a7a32b44f3b2f44a,5fb5d8d42d9b681ceb7e4f98,2020-11-19_03h31.31.209,Colour_Similarity_Experiment,2020.1.2,Win32,60,5fb5945709dec70f2d595766,,,,,,,,,,,,,,,,,,,,PF,,,,,,,,7,0.748015,,,,,,,,,,,,,,,,,,,,,,,,,,,,5,59,156,1,0,0,response1disk,1,15,-5,1,0,0,rectangle,15,-5,1,0,0,3,1,"[65,11,4,322,138,307,77,200,283,13,58,247,311,78,192,85,231,272,42,14]",15,-5,1,0,0,0,40,39,39,159,1,,,,,,,,,,,,,,,,,,,,,
,,,,,,,,,,,,,,,,,,,,,,,,,,,,,,,,,,,,,,,,,,,5fa27915a7a32b44f3b2f44a,5fb5d8d42d9b681ceb7e4f98,2020-11-19_03h31.31.209,Colour_Similarity_Experiment,2020.1.2,Win32,60,5fb5945709dec70f2d595766,,,,,,,,,,,,,,,,,,,,FF,,,,,,,,0,1.192635,,,,,,,,,,,,,,,,,,,,,,,,,,,,7,-64,134,1,0,0,response7disk,7,-7,-12,1,0,0,rectangle,-7,-12,1,0,0,3,7,"[65,11,4,322,138,307,77,200,283,13,58,247,311,78,192,85,231,272,42,14]",-7,-12,1,0,0,0,41,40,40,34,1,,,,,,,,,,,,,,,,,,,,,
,,,,,,,,,,,,,,,,,,,,,,,,,,,,,,,,,,,,,,,,,,,5fa27915a7a32b44f3b2f44a,5fb5d8d42d9b681ceb7e4f98,2020-11-19_03h31.31.209,Colour_Similarity_Experiment,2020.1.2,Win32,60,5fb5945709dec70f2d595766,,,,,,,,,,,,,,,,,,,,PF,,,,,,,,7,1.90789,,,,,,,,,,,,,,,,,,,,,,,,,,,,3,41,145,1,0,0,response1disk,2,29,7,1,0,0,rectangle,-117,-53,1,0,0,3,2,"[65,11,4,322,138,307,77,200,283,13,58,247,311,78,192,85,231,272,42,14]",0,3,1,0,0,0,42,41,41,36,1,response5disk_3,rectangle,,,,,,,,,,,,,,,,,,,
,,,,,,,,,,,,,,,,,,,,,,,,,,,,,,,,,,,,,,,,,,,5fa27915a7a32b44f3b2f44a,5fb5d8d42d9b681ceb7e4f98,2020-11-19_03h31.31.209,Colour_Similarity_Experiment,2020.1.2,Win32,60,5fb5945709dec70f2d595766,,,,,,,,,,,,,,,,,,,,PF,,,,,,,,7,1.06024,,,,,,,,,,,,,,,,,,,,,,,,,,,,4,63,136,1,0,0,response1disk,9,-10,1,1,0,0,rectangle,-10,1,1,0,0,3,3,"[65,11,4,322,138,307,77,200,283,13,58,247,311,78,192,85,231,272,42,14]",-10,1,1,0,0,0,43,42,42,75,1,,,,,,,,,,,,,,,,,,,,,
,,,,,,,,,,,,,,,,,,,,,,,,,,,,,,,,,,,,,,,,,,,5fa27915a7a32b44f3b2f44a,5fb5d8d42d9b681ceb7e4f98,2020-11-19_03h31.31.209,Colour_Similarity_Experiment,2020.1.2,Win32,60,5fb5945709dec70f2d595766,,,,,,,,,,,,,,,,,,,,PF,,,,,,,,0,1.14753,,,,,,,,,,,,,,,,,,,,,,,,,,,,5,-59,150,1,0,0,response7disk,5,-6,7,1,0,0,rectangle,-6,7,1,0,0,3,0,"[65,11,4,322,138,307,77,200,283,13,58,247,311,78,192,85,231,272,42,14]",-6,7,1,0,0,0,44,43,43,94,1,,,,,,,,,,,,,,,,,,,,,
,,,,,,,,,,,,,,,,,,,,,,,,,,,,,,,,,,,,,,,,,,,5fa27915a7a32b44f3b2f44a,5fb5d8d42d9b681ceb7e4f98,2020-11-19_03h31.31.209,Colour_Similarity_Experiment,2020.1.2,Win32,60,5fb5945709dec70f2d595766,,,,,,,,,,,,,,,,,,,,PF,,,,,,,,7,1.29208,,,,,,,,,,,,,,,,,,,,,,,,,,,,6,68,142,1,0,0,response1disk,2,15,-11,1,0,0,rectangle,15,-11,1,0,0,3,1,"[65,11,4,322,138,307,77,200,283,13,58,247,311,78,192,85,231,272,42,14]",15,-11,1,0,0,0,45,44,44,130,1,,,,,,,,,,,,,,,,,,,,,
,,,,,,,,,,,,,,,,,,,,,,,,,,,,,,,,,,,,,,,,,,,5fa27915a7a32b44f3b2f44a,5fb5d8d42d9b681ceb7e4f98,2020-11-19_03h31.31.209,Colour_Similarity_Experiment,2020.1.2,Win32,60,5fb5945709dec70f2d595766,,,,,,,,,,,,,,,,,,,,FF,,,,,,,,7,1.19699,,,,,,,,,,,,,,,,,,,,,,,,,,,,1,56,145,1,0,0,response1disk,7,-4,13,1,0,0,rectangle,-4,13,1,0,0,3,5,"[65,11,4,322,138,307,77,200,283,13,58,247,311,78,192,85,231,272,42,14]",-4,13,1,0,0,0,46,45,45,137,1,,,,,,,,,,,,,,,,,,,,,
,,,,,,,,,,,,,,,,,,,,,,,,,,,,,,,,,,,,,,,,,,,5fa27915a7a32b44f3b2f44a,5fb5d8d42d9b681ceb7e4f98,2020-11-19_03h31.31.209,Colour_Similarity_Experiment,2020.1.2,Win32,60,5fb5945709dec70f2d595766,,,,,,,,,,,,,,,,,,,,FF,,,,,,,,4,1.77704,,,,,,,,,,,,,,,,,,,,,,,,,,,,8,55,-141,1,0,0,response3disk,9,14,3,1,0,0,rectangle,14,3,1,0,0,3,1,"[65,11,4,322,138,307,77,200,283,13,58,247,311,78,192,85,231,272,42,14]",14,3,1,0,0,0,47,46,46,105,1,,,,,,,,,,,,,,,,,,,,,
,,,,,,,,,,,,,,,,,,,,,,,,,,,,,,,,,,,,,,,,,,,5fa27915a7a32b44f3b2f44a,5fb5d8d42d9b681ceb7e4f98,2020-11-19_03h31.31.209,Colour_Similarity_Experiment,2020.1.2,Win32,60,5fb5945709dec70f2d595766,,,,,,,,,,,,,,,,,,,,PF,,,,,,,,7,1.64149,,,,,,,,,,,,,,,,,,,,,,,,,,,,9,60,129,1,0,0,response1disk,7,13,16,1,0,0,rectangle,13,16,1,0,0,3,4,"[65,11,4,322,138,307,77,200,283,13,58,247,311,78,192,85,231,272,42,14]",13,16,1,0,0,0,48,47,47,121,1,,,,,,,,,,,,,,,,,,,,,
,,,,,,,,,,,,,,,,,,,,,,,,,,,,,,,,,,,,,,,,,,,5fa27915a7a32b44f3b2f44a,5fb5d8d42d9b681ceb7e4f98,2020-11-19_03h31.31.209,Colour_Similarity_Experiment,2020.1.2,Win32,60,5fb5945709dec70f2d595766,,,,,,,,,,,,,,,,,,,,PF,,,,,,,,7,2.200395,,,,,,,,,,,,,,,,,,,,,,,,,,,,1,60,159,1,0,0,response1disk,7,-2,2,1,0,0,rectangle,-2,2,1,0,0,3,7,"[65,11,4,322,138,307,77,200,283,13,58,247,311,78,192,85,231,272,42,14]",-2,2,1,0,0,0,49,48,48,150,1,,,,,,,,,,,,,,,,,,,,,
,,,,,,,,,,,,,,,,,,,,,,,,,,,,,,,,,,,,,,,,,,,5fa27915a7a32b44f3b2f44a,5fb5d8d42d9b681ceb7e4f98,2020-11-19_03h31.31.209,Colour_Similarity_Experiment,2020.1.2,Win32,60,5fb5945709dec70f2d595766,,,,,,,,,,,,,,,,,,,,PF,,,,,,,,7,4.229695,,,,,,,,,,,,,,,,,,,,,,,,,,,,1,55,138,1,0,0,response1disk,2,-10,-4,1,0,0,rectangle,-10,-4,1,0,0,3,4,"[65,11,4,322,138,307,77,200,283,13,58,247,311,78,192,85,231,272,42,14]",-10,-4,1,0,0,0,50,49,49,24,1,,,,,,,,,,,,,,,,,,,,,
,,,,,,,,,,,,,,,,,,,,,,,,,,,,,,,,,,,,,,,,,,,5fa27915a7a32b44f3b2f44a,5fb5d8d42d9b681ceb7e4f98,2020-11-19_03h31.31.209,Colour_Similarity_Experiment,2020.1.2,Win32,60,5fb5945709dec70f2d595766,,,,,,,,,,,,,,,,,,,,PF,,,,,,,,0,1.02894,,,,,,,,,,,,,,,,,,,,,,,,,,,,2,-46,139,1,0,0,response7disk,2,-6,-19,1,0,0,rectangle,-6,-19,1,0,0,3,0,"[65,11,4,322,138,307,77,200,283,13,58,247,311,78,192,85,231,272,42,14]",-6,-19,1,0,0,0,51,50,50,14,1,,,,,,,,,,,,,,,,,,,,,
,,,,,,,,,,,,,,,,,,,,,,,,,,,,,,,,,,,,,,,,,,,5fa27915a7a32b44f3b2f44a,5fb5d8d42d9b681ceb7e4f98,2020-11-19_03h31.31.209,Colour_Similarity_Experiment,2020.1.2,Win32,60,5fb5945709dec70f2d595766,,,,,,,,,,,,,,,,,,,,PF,,,,,,,,0,0.851085,,,,,,,,,,,,,,,,,,,,,,,,,,,,3,-57,131,1,0,0,response7disk,4,-2,3,1,0,0,rectangle,-2,3,1,0,0,3,1,"[65,11,4,322,138,307,77,200,283,13,58,247,311,78,192,85,231,272,42,14]",-2,3,1,0,0,0,52,51,51,30,1,,,,,,,,,,,,,,,,,,,,,
,,,,,,,,,,,,,,,,,,,,,,,,,,,,,,,,,,,,,,,,,,,5fa27915a7a32b44f3b2f44a,5fb5d8d42d9b681ceb7e4f98,2020-11-19_03h31.31.209,Colour_Similarity_Experiment,2020.1.2,Win32,60,5fb5945709dec70f2d595766,,,,,,,,,,,,,,,,,,,,FF,,,,,,,,7,2.247465,,,,,,,,,,,,,,,,,,,,,,,,,,,,5,70,166,1,0,0,response1disk,7,0,6,1,0,0,rectangle,0,6,1,0,0,3,3,"[65,11,4,322,138,307,77,200,283,13,58,247,311,78,192,85,231,272,42,14]",0,6,1,0,0,0,53,52,52,7,1,,,,,,,,,,,,,,,,,,,,,
,,,,,,,,,,,,,,,,,,,,,,,,,,,,,,,,,,,,,,,,,,,5fa27915a7a32b44f3b2f44a,5fb5d8d42d9b681ceb7e4f98,2020-11-19_03h31.31.209,Colour_Similarity_Experiment,2020.1.2,Win32,60,5fb5945709dec70f2d595766,,,,,,,,,,,,,,,,,,,,PF,,,,,,,,7,1.7522,,,,,,,,,,,,,,,,,,,,,,,,,,,,7,55,150,1,0,0,response1disk,4,-6,7,1,0,0,rectangle,-6,7,1,0,0,3,1,"[65,11,4,322,138,307,77,200,283,13,58,247,311,78,192,85,231,272,42,14]",-6,7,1,0,0,0,54,53,53,43,1,,,,,,,,,,,,,,,,,,,,,
,,,,,,,,,,,,,,,,,,,,,,,,,,,,,,,,,,,,,,,,,,,5fa27915a7a32b44f3b2f44a,5fb5d8d42d9b681ceb7e4f98,2020-11-19_03h31.31.209,Colour_Similarity_Experiment,2020.1.2,Win32,60,5fb5945709dec70f2d595766,,,,,,,,,,,,,,,,,,,,PF,,,,,,,,5,2.303295,,,,,,,,,,,,,,,,,,,,,,,,,,,,5,113,-48,1,0,0,response3disk,3,40,-14,1,0,0,rectangle,40,-14,1,0,0,3,1,"[65,11,4,322,138,307,77,200,283,13,58,247,311,78,192,85,231,272,42,14]",40,-14,1,0,0,0,55,54,54,109,1,,,,,,,,,,,,,,,,,,,,,
,,,,,,,,,,,,,,,,,,,,,,,,,,,,,,,,,,,,,,,,,,,5fa27915a7a32b44f3b2f44a,5fb5d8d42d9b681ceb7e4f98,2020-11-19_03h31.31.209,Colour_Similarity_Experiment,2020.1.2,Win32,60,5fb5945709dec70f2d595766,,,,,,,,,,,,,,,,,,,,PF,,,,,,,,7,1.013265,,,,,,,,,,,,,,,,,,,,,,,,,,,,7,62,139,1,0,0,response1disk,2,-4,2,1,0,0,rectangle,-4,2,1,0,0,3,3,"[65,11,4,322,138,307,77,200,283,13,58,247,311,78,192,85,231,272,42,14]",-4,2,1,0,0,0,56,55,55,32,1,,,,,,,,,,,,,,,,,,,,,
,,,,,,,,,,,,,,,,,,,,,,,,,,,,,,,,,,,,,,,,,,,5fa27915a7a32b44f3b2f44a,5fb5d8d42d9b681ceb7e4f98,2020-11-19_03h31.31.209,Colour_Similarity_Experiment,2020.1.2,Win32,60,5fb5945709dec70f2d595766,,,,,,,,,,,,,,,,,,,,FF,,,,,,,,7,0.74417,,,,,,,,,,,,,,,,,,,,,,,,,,,,9,56,151,1,0,0,response1disk,2,3,10,1,0,0,rectangle,3,10,1,0,0,3,5,"[65,11,4,322,138,307,77,200,283,13,58,247,311,78,192,85,231,272,42,14]",3,10,1,0,0,0,57,56,56,11,1,,,,,,,,,,,,,,,,,,,,,
,,,,,,,,,,,,,,,,,,,,,,,,,,,,,,,,,,,,,,,,,,,5fa27915a7a32b44f3b2f44a,5fb5d8d42d9b681ceb7e4f98,2020-11-19_03h31.31.209,Colour_Similarity_Experiment,2020.1.2,Win32,60,5fb5945709dec70f2d595766,,,,,,,,,,,,,,,,,,,,FF,,,,,,,,7,1.910235,,,,,,,,,,,,,,,,,,,,,,,,,,,,5,40,136,1,0,0,response1disk,6,7,-5,1,0,0,rectangle,-126,57,1,0,0,1,1,"[65,11,4,322,138,307,77,200,283,13,58,247,311,78,192,85,231,272,42,14]",-5,11,1,0,0,0,58,57,57,12,1,response7disk_3,rectangle,,,,,,,,,,,,,,,,,,,
,,,,,,,,,,,,,,,,,,,,,,,,,,,,,,,,,,,,,,,,,,,5fa27915a7a32b44f3b2f44a,5fb5d8d42d9b681ceb7e4f98,2020-11-19_03h31.31.209,Colour_Similarity_Experiment,2020.1.2,Win32,60,5fb5945709dec70f2d595766,,,,,,,,,,,,,,,,,,,,FF,,,,,,,,0,1.1347,,,,,,,,,,,,,,,,,,,,,,,,,,,,9,-51,138,1,0,0,response7disk,9,10,-9,1,0,0,rectangle,10,-9,1,0,0,1,3,"[65,11,4,322,138,307,77,200,283,13,58,247,311,78,192,85,231,272,42,14]",10,-9,1,0,0,0,59,58,58,17,1,,,,,,,,,,,,,,,,,,,,,
,,,,,,,,,,,,,,,,,,,,,,,,,,,,,,,,,,,,,,,,,,,5fa27915a7a32b44f3b2f44a,5fb5d8d42d9b681ceb7e4f98,2020-11-19_03h31.31.209,Colour_Similarity_Experiment,2020.1.2,Win32,60,5fb5945709dec70f2d595766,,,,,,,,,,,,,,,,,,,,FF,,,,,,,,7,2.184625,,,,,,,,,,,,,,,,,,,,,,,,,,,,9,54,156,1,0,0,response1disk,4,1,9,1,0,0,rectangle,1,9,1,0,0,1,0,"[65,11,4,322,138,307,77,200,283,13,58,247,311,78,192,85,231,272,42,14]",1,9,1,0,0,0,60,59,59,60,1,,,,,,,,,,,,,,,,,,,,,
,,,,,,,,,,,,,,,,,,,,,,,,,,,,,,,,,,,,,,,,,,,5fa27915a7a32b44f3b2f44a,5fb5d8d42d9b681ceb7e4f98,2020-11-19_03h31.31.209,Colour_Similarity_Experiment,2020.1.2,Win32,60,5fb5945709dec70f2d595766,,,,,,,,,,,,,,,,,,,,PF,,,,,,,,7,0.889985,,,,,,,,,,,,,,,,,,,,,,,,,,,,9,60,154,1,0,0,response1disk,5,13,-15,1,0,0,rectangle,13,-15,1,0,0,1,0,"[65,11,4,322,138,307,77,200,283,13,58,247,311,78,192,85,231,272,42,14]",13,-15,1,0,0,0,61,60,60,134,1,,,,,,,,,,,,,,,,,,,,,
,,,,,,,,,,,,,,,,,,,,,,,,,,,,,,,,,,,,,,,,,,,5fa27915a7a32b44f3b2f44a,5fb5d8d42d9b681ceb7e4f98,2020-11-19_03h31.31.209,Colour_Similarity_Experiment,2020.1.2,Win32,60,5fb5945709dec70f2d595766,,,,,,,,,,,,,,,,,,,,PF,,,,,,,,7,1.44774,,,,,,,,,,,,,,,,,,,,,,,,,,,,5,54,134,1,0,0,response1disk,8,5,13,1,0,0,rectangle,5,13,1,0,0,1,7,"[65,11,4,322,138,307,77,200,283,13,58,247,311,78,192,85,231,272,42,14]",5,13,1,0,0,0,62,61,61,149,1,,,,,,,,,,,,,,,,,,,,,
,,,,,,,,,,,,,,,,,,,,,,,,,,,,,,,,,,,,,,,,,,,5fa27915a7a32b44f3b2f44a,5fb5d8d42d9b681ceb7e4f98,2020-11-19_03h31.31.209,Colour_Similarity_Experiment,2020.1.2,Win32,60,5fb5945709dec70f2d595766,,,,,,,,,,,,,,,,,,,,FF,,,,,,,,7,0.87132,,,,,,,,,,,,,,,,,,,,,,,,,,,,7,53,151,1,0,0,response1disk,9,6,20,1,0,0,rectangle,6,20,1,0,0,1,4,"[65,11,4,322,138,307,77,200,283,13,58,247,311,78,192,85,231,272,42,14]",6,20,1,0,0,0,63,62,62,155,1,,,,,,,,,,,,,,,,,,,,,
,,,,,,,,,,,,,,,,,,,,,,,,,,,,,,,,,,,,,,,,,,,5fa27915a7a32b44f3b2f44a,5fb5d8d42d9b681ceb7e4f98,2020-11-19_03h31.31.209,Colour_Similarity_Experiment,2020.1.2,Win32,60,5fb5945709dec70f2d595766,,,,,,,,,,,,,,,,,,,,PF,,,,,,,,7,1.47908,,,,,,,,,,,,,,,,,,,,,,,,,,,,7,61,145,1,0,0,response1disk,8,-12,-1,1,0,0,rectangle,-12,-1,1,0,0,1,6,"[65,11,4,322,138,307,77,200,283,13,58,247,311,78,192,85,231,272,42,14]",-12,-1,1,0,0,0,64,63,63,140,1,,,,,,,,,,,,,,,,,,,,,
,,,,,,,,,,,,,,,,,,,,,,,,,,,,,,,,,,,,,,,,,,,5fa27915a7a32b44f3b2f44a,5fb5d8d42d9b681ceb7e4f98,2020-11-19_03h31.31.209,Colour_Similarity_Experiment,2020.1.2,Win32,60,5fb5945709dec70f2d595766,,,,,,,,,,,,,,,,,,,,FF,,,,,,,,7,0.871785,,,,,,,,,,,,,,,,,,,,,,,,,,,,3,55,135,1,0,0,response1disk,6,10,18,1,0,0,rectangle,-112,-48,1,0,0,1,2,"[65,11,4,322,138,307,77,200,283,13,58,247,311,78,192,85,231,272,42,14]",-9,-2,1,0,0,0,65,64,64,95,1,response5disk_3,rectangle,,,,,,,,,,,,,,,,,,,
,,,,,,,,,,,,,,,,,,,,,,,,,,,,,,,,,,,,,,,,,,,5fa27915a7a32b44f3b2f44a,5fb5d8d42d9b681ceb7e4f98,2020-11-19_03h31.31.209,Colour_Similarity_Experiment,2020.1.2,Win32,60,5fb5945709dec70f2d595766,,,,,,,,,,,,,,,,,,,,FF,,,,,,,,7,1.29997,,,,,,,,,,,,,,,,,,,,,,,,,,,,2,53,140,1,0,0,response1disk,7,6,10,1,0,0,rectangle,6,10,1,0,0,1,1,"[65,11,4,322,138,307,77,200,283,13,58,247,311,78,192,85,231,272,42,14]",6,10,1,0,0,0,66,65,65,63,1,,,,,,,,,,,,,,,,,,,,,
,,,,,,,,,,,,,,,,,,,,,,,,,,,,,,,,,,,,,,,,,,,5fa27915a7a32b44f3b2f44a,5fb5d8d42d9b681ceb7e4f98,2020-11-19_03h31.31.209,Colour_Similarity_Experiment,2020.1.2,Win32,60,5fb5945709dec70f2d595766,,,,,,,,,,,,,,,,,,,,FF,,,,,,,,7,2.284195,,,,,,,,,,,,,,,,,,,,,,,,,,,,4,43,147,1,0,0,response1disk,9,-7,17,1,0,0,rectangle,-7,17,1,0,0,1,3,"[65,11,4,322,138,307,77,200,283,13,58,247,311,78,192,85,231,272,42,14]",-7,17,1,0,0,0,67,66,66,90,1,,,,,,,,,,,,,,,,,,,,,
,,,,,,,,,,,,,,,,,,,,,,,,,,,,,,,,,,,,,,,,,,,5fa27915a7a32b44f3b2f44a,5fb5d8d42d9b681ceb7e4f98,2020-11-19_03h31.31.209,Colour_Similarity_Experiment,2020.1.2,Win32,60,5fb5945709dec70f2d595766,,,,,,,,,,,,,,,,,,,,PF,,,,,,,,7,1.0135,,,,,,,,,,,,,,,,,,,,,,,,,,,,5,53,142,1,0,0,response1disk,9,0,-4,1,0,0,rectangle,0,-4,1,0,0,1,2,"[65,11,4,322,138,307,77,200,283,13,58,247,311,78,192,85,231,272,42,14]",0,-4,1,0,0,0,68,67,67,136,1,,,,,,,,,,,,,,,,,,,,,
,,,,,,,,,,,,,,,,,,,,,,,,,,,,,,,,,,,,,,,,,,,5fa27915a7a32b44f3b2f44a,5fb5d8d42d9b681ceb7e4f98,2020-11-19_03h31.31.209,Colour_Similarity_Experiment,2020.1.2,Win32,60,5fb5945709dec70f2d595766,,,,,,,,,,,,,,,,,,,,FF,,,,,,,,7,1.166005,,,,,,,,,,,,,,,,,,,,,,,,,,,,1,46,133,1,0,0,response1disk,2,-7,2,1,0,0,rectangle,-7,2,1,0,0,1,1,"[65,11,4,322,138,307,77,200,283,13,58,247,311,78,192,85,231,272,42,14]",-7,2,1,0,0,0,69,68,68,2,1,,,,,,,,,,,,,,,,,,,,,
,,,,,,,,,,,,,,,,,,,,,,,,,,,,,,,,,,,,,,,,,,,5fa27915a7a32b44f3b2f44a,5fb5d8d42d9b681ceb7e4f98,2020-11-19_03h31.31.209,Colour_Similarity_Experiment,2020.1.2,Win32,60,5fb5945709dec70f2d595766,,,,,,,,,,,,,,,,,,,,FF,,,,,,,,7,0.57496,,,,,,,,,,,,,,,,,,,,,,,,,,,,8,60,141,1,0,0,response1disk,7,-3,7,1,0,0,rectangle,-3,7,1,0,0,1,2,"[65,11,4,322,138,307,77,200,283,13,58,247,311,78,192,85,231,272,42,14]",-3,7,1,0,0,0,70,69,69,86,1,,,,,,,,,,,,,,,,,,,,,
,,,,,,,,,,,,,,,,,,,,,,,,,,,,,,,,,,,,,,,,,,,5fa27915a7a32b44f3b2f44a,5fb5d8d42d9b681ceb7e4f98,2020-11-19_03h31.31.209,Colour_Similarity_Experiment,2020.1.2,Win32,60,5fb5945709dec70f2d595766,,,,,,,,,,,,,,,,,,,,FF,,,,,,,,7,1.020295,,,,,,,,,,,,,,,,,,,,,,,,,,,,4,54,140,1,0,0,response1disk,8,-3,4,1,0,0,rectangle,-3,4,1,0,0,1,6,"[65,11,4,322,138,307,77,200,283,13,58,247,311,78,192,85,231,272,42,14]",-3,4,1,0,0,0,71,70,70,35,1,,,,,,,,,,,,,,,,,,,,,
,,,,,,,,,,,,,,,,,,,,,,,,,,,,,,,,,,,,,,,,,,,5fa27915a7a32b44f3b2f44a,5fb5d8d42d9b681ceb7e4f98,2020-11-19_03h31.31.209,Colour_Similarity_Experiment,2020.1.2,Win32,60,5fb5945709dec70f2d595766,,,,,,,,,,,,,,,,,,,,PF,,,,,,,,7,1.755795,,,,,,,,,,,,,,,,,,,,,,,,,,,,9,52,140,1,0,0,response1disk,1,-2,17,1,0,0,rectangle,-2,17,1,0,0,1,1,"[65,11,4,322,138,307,77,200,283,13,58,247,311,78,192,85,231,272,42,14]",-2,17,1,0,0,0,72,71,71,74,1,,,,,,,,,,,,,,,,,,,,,
,,,,,,,,,,,,,,,,,,,,,,,,,,,,,,,,,,,,,,,,,,,5fa27915a7a32b44f3b2f44a,5fb5d8d42d9b681ceb7e4f98,2020-11-19_03h31.31.209,Colour_Similarity_Experiment,2020.1.2,Win32,60,5fb5945709dec70f2d595766,,,,,,,,,,,,,,,,,,,,PF,,,,,,,,7,0.87937,,,,,,,,,,,,,,,,,,,,,,,,,,,,6,61,125,1,0,0,response1disk,3,-12,5,1,0,0,rectangle,-12,5,1,0,0,1,1,"[65,11,4,322,138,307,77,200,283,13,58,247,311,78,192,85,231,272,42,14]",-12,5,1,0,0,0,73,72,72,26,1,,,,,,,,,,,,,,,,,,,,,
,,,,,,,,,,,,,,,,,,,,,,,,,,,,,,,,,,,,,,,,,,,5fa27915a7a32b44f3b2f44a,5fb5d8d42d9b681ceb7e4f98,2020-11-19_03h31.31.209,Colour_Similarity_Experiment,2020.1.2,Win32,60,5fb5945709dec70f2d595766,,,,,,,,,,,,,,,,,,,,FF,,,,,,,,7,0.716445,,,,,,,,,,,,,,,,,,,,,,,,,,,,2,55,134,1,0,0,response1disk,1,17,19,1,0,0,rectangle,17,19,1,0,0,1,5,"[65,11,4,322,138,307,77,200,283,13,58,247,311,78,192,85,231,272,42,14]",17,19,1,0,0,0,74,73,73,85,1,,,,,,,,,,,,,,,,,,,,,
,,,,,,,,,,,,,,,,,,,,,,,,,,,,,,,,,,,,,,,,,,,5fa27915a7a32b44f3b2f44a,5fb5d8d42d9b681ceb7e4f98,2020-11-19_03h31.31.209,Colour_Similarity_Experiment,2020.1.2,Win32,60,5fb5945709dec70f2d595766,,,,,,,,,,,,,,,,,,,,PF,,,,,,,,0,0.97769,,,,,,,,,,,,,,,,,,,,,,,,,,,,9,-40,146,1,0,0,response7disk,9,-9,7,1,0,0,rectangle,-9,7,1,0,0,1,0,"[65,11,4,322,138,307,77,200,283,13,58,247,311,78,192,85,231,272,42,14]",-9,7,1,0,0,0,75,74,74,106,1,,,,,,,,,,,,,,,,,,,,,
,,,,,,,,,,,,,,,,,,,,,,,,,,,,,,,,,,,,,,,,,,,5fa27915a7a32b44f3b2f44a,5fb5d8d42d9b681ceb7e4f98,2020-11-19_03h31.31.209,Colour_Similarity_Experiment,2020.1.2,Win32,60,5fb5945709dec70f2d595766,,,,,,,,,,,,,,,,,,,,FF,,,,,,,,7,0.733875,,,,,,,,,,,,,,,,,,,,,,,,,,,,5,51,126,1,0,0,response1disk,9,21,15,1,0,0,rectangle,21,15,1,0,0,1,2,"[65,11,4,322,138,307,77,200,283,13,58,247,311,78,192,85,231,272,42,14]",21,15,1,0,0,0,76,75,75,61,1,,,,,,,,,,,,,,,,,,,,,
,,,,,,,,,,,,,,,,,,,,,,,,,,,,,,,,,,,,,,,,,,,5fa27915a7a32b44f3b2f44a,5fb5d8d42d9b681ceb7e4f98,2020-11-19_03h31.31.209,Colour_Similarity_Experiment,2020.1.2,Win32,60,5fb5945709dec70f2d595766,,,,,,,,,,,,,,,,,,,,PF,,,,,,,,7,0.56215,,,,,,,,,,,,,,,,,,,,,,,,,,,,1,56,156,1,0,0,response1disk,4,10,7,1,0,0,rectangle,-39,126,1,0,0,0,0,"[65,11,4,322,138,307,77,200,283,13,58,247,311,78,192,85,231,272,42,14]",-1,-2,1,0,0,0,77,76,76,139,1,response7disk_3,rectangle,,,,,,,,,,,,,,,,,,,
,,,,,,,,,,,,,,,,,,,,,,,,,,,,,,,,,,,,,,,,,,,5fa27915a7a32b44f3b2f44a,5fb5d8d42d9b681ceb7e4f98,2020-11-19_03h31.31.209,Colour_Similarity_Experiment,2020.1.2,Win32,60,5fb5945709dec70f2d595766,,,,,,,,,,,,,,,,,,,,PF,,,,,,,,7,0.889055,,,,,,,,,,,,,,,,,,,,,,,,,,,,3,61,131,1,0,0,response1disk,9,-2,1,1,0,0,rectangle,56,136,1,0,0,7,7,"[65,11,4,322,138,307,77,200,283,13,58,247,311,78,192,85,231,272,42,14]",-7,-5,1,0,0,0,78,77,77,79,1,response1disk_3,rectangle,,,,,,,,,,,,,,,,,,,
,,,,,,,,,,,,,,,,,,,,,,,,,,,,,,,,,,,,,,,,,,,5fa27915a7a32b44f3b2f44a,5fb5d8d42d9b681ceb7e4f98,2020-11-19_03h31.31.209,Colour_Similarity_Experiment,2020.1.2,Win32,60,5fb5945709dec70f2d595766,,,,,,,,,,,,,,,,,,,,FF,,,,,,,,7,0.7397,,,,,,,,,,,,,,,,,,,,,,,,,,,,6,56,156,1,0,0,response1disk,3,0,16,1,0,0,rectangle,0,16,1,0,0,7,0,"[65,11,4,322,138,307,77,200,283,13,58,247,311,78,192,85,231,272,42,14]",0,16,1,0,0,0,79,78,78,21,1,,,,,,,,,,,,,,,,,,,,,
,,,,,,,,,,,,,,,,,,,,,,,,,,,,,,,,,,,,,,,,,,,5fa27915a7a32b44f3b2f44a,5fb5d8d42d9b681ceb7e4f98,2020-11-19_03h31.31.209,Colour_Similarity_Experiment,2020.1.2,Win32,60,5fb5945709dec70f2d595766,,,,,,,,,,,,,,,,,,,,PF,,,,,,,,7,0.71353,,,,,,,,,,,,,,,,,,,,,,,,,,,,8,45,135,1,0,0,response1disk,4,12,16,1,0,0,rectangle,12,16,1,0,0,7,3,"[65,11,4,322,138,307,77,200,283,13,58,247,311,78,192,85,231,272,42,14]",12,16,1,0,0,0,80,79,79,78,1,,,,,,,,,,,,,,,,,,,,,
,,,,,,,,,,,,,,,,,,,,,,,,,,,,,,,,,,,,,,,,,,,5fa27915a7a32b44f3b2f44a,5fb5d8d42d9b681ceb7e4f98,2020-11-19_03h31.31.209,Colour_Similarity_Experiment,2020.1.2,Win32,60,5fb5945709dec70f2d595766,,,,,,,,,,,,,,,,,,,,PF,,,,,,,,7,2.85251,,,,,,,,,,,,,,,,,,,,,,,,,,,,5,51,153,1,0,0,response1disk,4,12,7,1,0,0,rectangle,12,7,1,0,0,7,0,"[65,11,4,322,138,307,77,200,283,13,58,247,311,78,192,85,231,272,42,14]",12,7,1,0,0,0,81,80,80,54,1,,,,,,,,,,,,,,,,,,,,,
,,,,,,,,,,,,,,,,,,,,,,,,,,,,,,,,,,,,,,,,,,,5fa27915a7a32b44f3b2f44a,5fb5d8d42d9b681ceb7e4f98,2020-11-19_03h31.31.209,Colour_Similarity_Experiment,2020.1.2,Win32,60,5fb5945709dec70f2d595766,,,,,,,,,,,,,,,,,,,,FF,,,,,,,,7,0.722185,,,,,,,,,,,,,,,,,,,,,,,,,,,,8,57,141,1,0,0,response1disk,1,-7,-2,1,0,0,rectangle,-7,-2,1,0,0,7,7,"[65,11,4,322,138,307,77,200,283,13,58,247,311,78,192,85,231,272,42,14]",-7,-2,1,0,0,0,82,81,81,20,1,,,,,,,,,,,,,,,,,,,,,
,,,,,,,,,,,,,,,,,,,,,,,,,,,,,,,,,,,,,,,,,,,5fa27915a7a32b44f3b2f44a,5fb5d8d42d9b681ceb7e4f98,2020-11-19_03h31.31.209,Colour_Similarity_Experiment,2020.1.2,Win32,60,5fb5945709dec70f2d595766,,,,,,,,,,,,,,,,,,,,FF,,,,,,,,7,1.28995,,,,,,,,,,,,,,,,,,,,,,,,,,,,1,51,125,1,0,0,response1disk,8,-10,7,1,0,0,rectangle,-10,7,1,0,0,7,6,"[65,11,4,322,138,307,77,200,283,13,58,247,311,78,192,85,231,272,42,14]",-10,7,1,0,0,0,83,82,82,27,1,,,,,,,,,,,,,,,,,,,,,
,,,,,,,,,,,,,,,,,,,,,,,,,,,,,,,,,,,,,,,,,,,5fa27915a7a32b44f3b2f44a,5fb5d8d42d9b681ceb7e4f98,2020-11-19_03h31.31.209,Colour_Similarity_Experiment,2020.1.2,Win32,60,5fb5945709dec70f2d595766,,,,,,,,,,,,,,,,,,,,FF,,,,,,,,7,0.711525,,,,,,,,,,,,,,,,,,,,,,,,,,,,3,51,142,1,0,0,response1disk,9,8,1,1,0,0,rectangle,8,1,1,0,0,7,1,"[65,11,4,322,138,307,77,200,283,13,58,247,311,78,192,85,231,272,42,14]",8,1,1,0,0,0,84,83,83,143,1,,,,,,,,,,,,,,,,,,,,,
,,,,,,,,,,,,,,,,,,,,,,,,,,,,,,,,,,,,,,,,,,,5fa27915a7a32b44f3b2f44a,5fb5d8d42d9b681ceb7e4f98,2020-11-19_03h31.31.209,Colour_Similarity_Experiment,2020.1.2,Win32,60,5fb5945709dec70f2d595766,,,,,,,,,,,,,,,,,,,,PF,,,,,,,,7,1.609185,,,,,,,,,,,,,,,,,,,,,,,,,,,,7,48,126,1,0,0,response1disk,5,-3,3,1,0,0,rectangle,143,49,1,0,0,6,6,"[65,11,4,322,138,307,77,200,283,13,58,247,311,78,192,85,231,272,42,14]",8,-6,1,0,0,0,85,84,84,92,1,response1disk_3,rectangle,,,,,,,,,,,,,,,,,,,
,,,,,,,,,,,,,,,,,,,,,,,,,,,,,,,,,,,,,,,,,,,5fa27915a7a32b44f3b2f44a,5fb5d8d42d9b681ceb7e4f98,2020-11-19_03h31.31.209,Colour_Similarity_Experiment,2020.1.2,Win32,60,5fb5945709dec70f2d595766,,,,,,,,,,,,,,,,,,,,PF,,,,,,,,7,1.65995,,,,,,,,,,,,,,,,,,,,,,,,,,,,2,54,135,1,0,0,response1disk,9,-5,-6,1,0,0,rectangle,-5,-6,1,0,0,6,7,"[65,11,4,322,138,307,77,200,283,13,58,247,311,78,192,85,231,272,42,14]",-5,-6,1,0,0,0,86,85,85,39,1,,,,,,,,,,,,,,,,,,,,,
,,,,,,,,,,,,,,,,,,,,,,,,,,,,,,,,,,,,,,,,,,,5fa27915a7a32b44f3b2f44a,5fb5d8d42d9b681ceb7e4f98,2020-11-19_03h31.31.209,Colour_Similarity_Experiment,2020.1.2,Win32,60,5fb5945709dec70f2d595766,,,,,,,,,,,,,,,,,,,,FF,,,,,,,,7,0.99022,,,,,,,,,,,,,,,,,,,,,,,,,,,,9,37,74,1,0,0,response1disk,1,1,-10,1,0,0,rectangle,1,-10,1,0,0,6,6,"[65,11,4,322,138,307,77,200,283,13,58,247,311,78,192,85,231,272,42,14]",1,-10,1,0,0,0,87,86,86,111,1,,,,,,,,,,,,,,,,,,,,,
,,,,,,,,,,,,,,,,,,,,,,,,,,,,,,,,,,,,,,,,,,,5fa27915a7a32b44f3b2f44a,5fb5d8d42d9b681ceb7e4f98,2020-11-19_03h31.31.209,Colour_Similarity_Experiment,2020.1.2,Win32,60,5fb5945709dec70f2d595766,,,,,,,,,,,,,,,,,,,,PF,,,,,,,,7,1.22974,,,,,,,,,,,,,,,,,,,,,,,,,,,,6,24,49,1,0,0,response1disk,1,10,14,1,0,0,rectangle,10,14,1,0,0,6,7,"[65,11,4,322,138,307,77,200,283,13,58,247,311,78,192,85,231,272,42,14]",10,14,1,0,0,0,88,87,87,46,1,,,,,,,,,,,,,,,,,,,,,
,,,,,,,,,,,,,,,,,,,,,,,,,,,,,,,,,,,,,,,,,,,5fa27915a7a32b44f3b2f44a,5fb5d8d42d9b681ceb7e4f98,2020-11-19_03h31.31.209,Colour_Similarity_Experiment,2020.1.2,Win32,60,5fb5945709dec70f2d595766,,,,,,,,,,,,,,,,,,,,PF,,,,,,,,7,0.979345,,,,,,,,,,,,,,,,,,,,,,,,,,,,8,30,50,1,0,0,response1disk,7,3,1,1,0,0,rectangle,3,1,1,0,0,6,4,"[65,11,4,322,138,307,77,200,283,13,58,247,311,78,192,85,231,272,42,14]",3,1,1,0,0,0,89,88,88,23,1,,,,,,,,,,,,,,,,,,,,,
,,,,,,,,,,,,,,,,,,,,,,,,,,,,,,,,,,,,,,,,,,,5fa27915a7a32b44f3b2f44a,5fb5d8d42d9b681ceb7e4f98,2020-11-19_03h31.31.209,Colour_Similarity_Experiment,2020.1.2,Win32,60,5fb5945709dec70f2d595766,,,,,,,,,,,,,,,,,,,,FF,,,,,,,,7,0.861415,,,,,,,,,,,,,,,,,,,,,,,,,,,,4,36,54,1,0,0,response1disk,1,2,-3,1,0,0,rectangle,2,-3,1,0,0,6,5,"[65,11,4,322,138,307,77,200,283,13,58,247,311,78,192,85,231,272,42,14]",2,-3,1,0,0,0,90,89,89,102,1,,,,,,,,,,,,,,,,,,,,,
,,,,,,,,,,,,,,,,,,,,,,,,,,,,,,,,,,,,,,,,,,,5fa27915a7a32b44f3b2f44a,5fb5d8d42d9b681ceb7e4f98,2020-11-19_03h31.31.209,Colour_Similarity_Experiment,2020.1.2,Win32,60,5fb5945709dec70f2d595766,,,,,,,,,,,,,,,,,,,,FF,,,,,,,,7,1.30531,,,,,,,,,,,,,,,,,,,,,,,,,,,,2,25,46,1,0,0,response1disk,6,5,7,1,0,0,rectangle,5,7,1,0,0,6,5,"[65,11,4,322,138,307,77,200,283,13,58,247,311,78,192,85,231,272,42,14]",5,7,1,0,0,0,91,90,90,40,1,,,,,,,,,,,,,,,,,,,,,
,,,,,,,,,,,,,,,,,,,,,,,,,,,,,,,,,,,,,,,,,,,5fa27915a7a32b44f3b2f44a,5fb5d8d42d9b681ceb7e4f98,2020-11-19_03h31.31.209,Colour_Similarity_Experiment,2020.1.2,Win32,60,5fb5945709dec70f2d595766,,,,,,,,,,,,,,,,,,,,PF,,,,,,,,0,1.01136,,,,,,,,,,,,,,,,,,,,,,,,,,,,4,-38,86,1,0,0,response7disk,4,4,3,1,0,0,rectangle,4,3,1,0,0,6,5,"[65,11,4,322,138,307,77,200,283,13,58,247,311,78,192,85,231,272,42,14]",4,3,1,0,0,0,92,91,91,70,1,,,,,,,,,,,,,,,,,,,,,
,,,,,,,,,,,,,,,,,,,,,,,,,,,,,,,,,,,,,,,,,,,5fa27915a7a32b44f3b2f44a,5fb5d8d42d9b681ceb7e4f98,2020-11-19_03h31.31.209,Colour_Similarity_Experiment,2020.1.2,Win32,60,5fb5945709dec70f2d595766,,,,,,,,,,,,,,,,,,,,PF,,,,,,,,7,0.746665,,,,,,,,,,,,,,,,,,,,,,,,,,,,4,33,56,1,0,0,response1disk,6,-2,7,1,0,0,rectangle,-2,7,1,0,0,6,2,"[65,11,4,322,138,307,77,200,283,13,58,247,311,78,192,85,231,272,42,14]",-2,7,1,0,0,0,93,92,92,120,1,,,,,,,,,,,,,,,,,,,,,
,,,,,,,,,,,,,,,,,,,,,,,,,,,,,,,,,,,,,,,,,,,5fa27915a7a32b44f3b2f44a,5fb5d8d42d9b681ceb7e4f98,2020-11-19_03h31.31.209,Colour_Similarity_Experiment,2020.1.2,Win32,60,5fb5945709dec70f2d595766,,,,,,,,,,,,,,,,,,,,FF,,,,,,,,5,1.7238,,,,,,,,,,,,,,,,,,,,,,,,,,,,5,84,-32,1,0,0,response3disk,4,1,2,1,0,0,rectangle,1,2,1,0,0,6,4,"[65,11,4,322,138,307,77,200,283,13,58,247,311,78,192,85,231,272,42,14]",1,2,1,0,0,0,94,93,93,8,1,,,,,,,,,,,,,,,,,,,,,
,,,,,,,,,,,,,,,,,,,,,,,,,,,,,,,,,,,,,,,,,,,5fa27915a7a32b44f3b2f44a,5fb5d8d42d9b681ceb7e4f98,2020-11-19_03h31.31.209,Colour_Similarity_Experiment,2020.1.2,Win32,60,5fb5945709dec70f2d595766,,,,,,,,,,,,,,,,,,,,PF,,,,,,,,7,1.305885,,,,,,,,,,,,,,,,,,,,,,,,,,,,5,38,75,1,0,0,response1disk,2,5,12,1,0,0,rectangle,5,12,1,0,0,6,6,"[65,11,4,322,138,307,77,200,283,13,58,247,311,78,192,85,231,272,42,14]",5,12,1,0,0,0,95,94,94,129,1,,,,,,,,,,,,,,,,,,,,,
,,,,,,,,,,,,,,,,,,,,,,,,,,,,,,,,,,,,,,,,,,,5fa27915a7a32b44f3b2f44a,5fb5d8d42d9b681ceb7e4f98,2020-11-19_03h31.31.209,Colour_Similarity_Experiment,2020.1.2,Win32,60,5fb5945709dec70f2d595766,,,,,,,,,,,,,,,,,,,,PF,,,,,,,,0,0.863455,,,,,,,,,,,,,,,,,,,,,,,,,,,,7,-42,77,1,0,0,response7disk,7,4,2,1,0,0,rectangle,4,2,1,0,0,6,2,"[65,11,4,322,138,307,77,200,283,13,58,247,311,78,192,85,231,272,42,14]",4,2,1,0,0,0,96,95,95,51,1,,,,,,,,,,,,,,,,,,,,,
,,,,,,,,,,,,,,,,,,,,,,,,,,,,,,,,,,,,,,,,,,,5fa27915a7a32b44f3b2f44a,5fb5d8d42d9b681ceb7e4f98,2020-11-19_03h31.31.209,Colour_Similarity_Experiment,2020.1.2,Win32,60,5fb5945709dec70f2d595766,,,,,,,,,,,,,,,,,,,,PF,,,,,,,,7,0.76502,,,,,,,,,,,,,,,,,,,,,,,,,,,,8,26,53,1,0,0,response1disk,9,4,17,1,0,0,rectangle,4,17,1,0,0,6,4,"[65,11,4,322,138,307,77,200,283,13,58,247,311,78,192,85,231,272,42,14]",4,17,1,0,0,0,97,96,96,42,1,,,,,,,,,,,,,,,,,,,,,
,,,,,,,,,,,,,,,,,,,,,,,,,,,,,,,,,,,,,,,,,,,5fa27915a7a32b44f3b2f44a,5fb5d8d42d9b681ceb7e4f98,2020-11-19_03h31.31.209,Colour_Similarity_Experiment,2020.1.2,Win32,60,5fb5945709dec70f2d595766,,,,,,,,,,,,,,,,,,,,FF,,,,,,,,0,1.48632,,,,,,,,,,,,,,,,,,,,,,,,,,,,1,-45,92,1,0,0,response7disk,1,4,0,1,0,0,rectangle,4,0,1,0,0,6,7,"[65,11,4,322,138,307,77,200,283,13,58,247,311,78,192,85,231,272,42,14]",4,0,1,0,0,0,98,97,97,151,1,,,,,,,,,,,,,,,,,,,,,
,,,,,,,,,,,,,,,,,,,,,,,,,,,,,,,,,,,,,,,,,,,5fa27915a7a32b44f3b2f44a,5fb5d8d42d9b681ceb7e4f98,2020-11-19_03h31.31.209,Colour_Similarity_Experiment,2020.1.2,Win32,60,5fb5945709dec70f2d595766,,,,,,,,,,,,,,,,,,,,FF,,,,,,,,7,0.995525,,,,,,,,,,,,,,,,,,,,,,,,,,,,2,34,72,1,0,0,response1disk,4,6,12,1,0,0,rectangle,6,12,1,0,0,6,1,"[65,11,4,322,138,307,77,200,283,13,58,247,311,78,192,85,231,272,42,14]",6,12,1,0,0,0,99,98,98,145,1,,,,,,,,,,,,,,,,,,,,,
,,,,,,,,,,,,,,,,,,,,,,,,,,,,,,,,,,,,,,,,,,,5fa27915a7a32b44f3b2f44a,5fb5d8d42d9b681ceb7e4f98,2020-11-19_03h31.31.209,Colour_Similarity_Experiment,2020.1.2,Win32,60,5fb5945709dec70f2d595766,,,,,,,,,,,,,,,,,,,,PF,,,,,,,,0,1.70589,,,,,,,,,,,,,,,,,,,,,,,,,,,,8,-33,58,1,0,0,response7disk,8,6,-10,1,0,0,rectangle,6,-10,1,0,0,6,1,"[65,11,4,322,138,307,77,200,283,13,58,247,311,78,192,85,231,272,42,14]",6,-10,1,0,0,0,100,99,99,153,1,,,,,,,,,,,,,,,,,,,,,
,,,,,,,,,,,,,,,,,,,,,,,,,,,,,,,,,,,,,,,,,,,5fa27915a7a32b44f3b2f44a,5fb5d8d42d9b681ceb7e4f98,2020-11-19_03h31.31.209,Colour_Similarity_Experiment,2020.1.2,Win32,60,5fb5945709dec70f2d595766,,,,,,,,,,,,,,,,,,,,FF,,,,,,,,7,0.58917,,,,,,,,,,,,,,,,,,,,,,,,,,,,8,34,67,1,0,0,response1disk,4,7,8,1,0,0,rectangle,7,8,1,0,0,6,1,"[65,11,4,322,138,307,77,200,283,13,58,247,311,78,192,85,231,272,42,14]",7,8,1,0,0,0,101,100,100,88,1,,,,,,,,,,,,,,,,,,,,,
,,,,,,,,,,,,,,,,,,,,,,,,,,,,,,,,,,,,,,,,,,,5fa27915a7a32b44f3b2f44a,5fb5d8d42d9b681ceb7e4f98,2020-11-19_03h31.31.209,Colour_Similarity_Experiment,2020.1.2,Win32,60,5fb5945709dec70f2d595766,,,,,,,,,,,,,,,,,,,,FF,,,,,,,,7,0.578895,,,,,,,,,,,,,,,,,,,,,,,,,,,,7,34,63,1,0,0,response1disk,2,7,19,1,0,0,rectangle,7,19,1,0,0,6,3,"[65,11,4,322,138,307,77,200,283,13,58,247,311,78,192,85,231,272,42,14]",7,19,1,0,0,0,102,101,101,138,1,,,,,,,,,,,,,,,,,,,,,
,,,,,,,,,,,,,,,,,,,,,,,,,,,,,,,,,,,,,,,,,,,5fa27915a7a32b44f3b2f44a,5fb5d8d42d9b681ceb7e4f98,2020-11-19_03h31.31.209,Colour_Similarity_Experiment,2020.1.2,Win32,60,5fb5945709dec70f2d595766,,,,,,,,,,,,,,,,,,,,PF,,,,,,,,7,0.738845,,,,,,,,,,,,,,,,,,,,,,,,,,,,3,31,54,1,0,0,response1disk,5,-5,4,1,0,0,rectangle,-5,4,1,0,0,6,0,"[65,11,4,322,138,307,77,200,283,13,58,247,311,78,192,85,231,272,42,14]",-5,4,1,0,0,0,103,102,102,66,1,,,,,,,,,,,,,,,,,,,,,
,,,,,,,,,,,,,,,,,,,,,,,,,,,,,,,,,,,,,,,,,,,5fa27915a7a32b44f3b2f44a,5fb5d8d42d9b681ceb7e4f98,2020-11-19_03h31.31.209,Colour_Similarity_Experiment,2020.1.2,Win32,60,5fb5945709dec70f2d595766,,,,,,,,,,,,,,,,,,,,FF,,,,,,,,7,1.02429,,,,,,,,,,,,,,,,,,,,,,,,,,,,9,41,62,1,0,0,response1disk,3,10,7,1,0,0,rectangle,10,7,1,0,0,6,3,"[65,11,4,322,138,307,77,200,283,13,58,247,311,78,192,85,231,272,42,14]",10,7,1,0,0,0,104,103,103,141,1,,,,,,,,,,,,,,,,,,,,,
,,,,,,,,,,,,,,,,,,,,,,,,,,,,,,,,,,,,,,,,,,,5fa27915a7a32b44f3b2f44a,5fb5d8d42d9b681ceb7e4f98,2020-11-19_03h31.31.209,Colour_Similarity_Experiment,2020.1.2,Win32,60,5fb5945709dec70f2d595766,,,,,,,,,,,,,,,,,,,,PF,,,,,,,,7,0.70626,,,,,,,,,,,,,,,,,,,,,,,,,,,,2,33,60,1,0,0,response1disk,5,3,8,1,0,0,rectangle,3,8,1,0,0,6,6,"[65,11,4,322,138,307,77,200,283,13,58,247,311,78,192,85,231,272,42,14]",3,8,1,0,0,0,105,104,104,147,1,,,,,,,,,,,,,,,,,,,,,
,,,,,,,,,,,,,,,,,,,,,,,,,,,,,,,,,,,,,,,,,,,5fa27915a7a32b44f3b2f44a,5fb5d8d42d9b681ceb7e4f98,2020-11-19_03h31.31.209,Colour_Similarity_Experiment,2020.1.2,Win32,60,5fb5945709dec70f2d595766,,,,,,,,,,,,,,,,,,,,PF,,,,,,,,7,0.84463,,,,,,,,,,,,,,,,,,,,,,,,,,,,4,31,56,1,0,0,response1disk,1,12,-6,1,0,0,rectangle,12,-6,1,0,0,6,2,"[65,11,4,322,138,307,77,200,283,13,58,247,311,78,192,85,231,272,42,14]",12,-6,1,0,0,0,106,105,105,115,1,,,,,,,,,,,,,,,,,,,,,
,,,,,,,,,,,,,,,,,,,,,,,,,,,,,,,,,,,,,,,,,,,5fa27915a7a32b44f3b2f44a,5fb5d8d42d9b681ceb7e4f98,2020-11-19_03h31.31.209,Colour_Similarity_Experiment,2020.1.2,Win32,60,5fb5945709dec70f2d595766,,,,,,,,,,,,,,,,,,,,PF,,,,,,,,7,1.44761,,,,,,,,,,,,,,,,,,,,,,,,,,,,7,31,63,1,0,0,response1disk,1,7,4,1,0,0,rectangle,7,4,1,0,0,6,7,"[65,11,4,322,138,307,77,200,283,13,58,247,311,78,192,85,231,272,42,14]",7,4,1,0,0,0,107,106,106,53,1,,,,,,,,,,,,,,,,,,,,,
,,,,,,,,,,,,,,,,,,,,,,,,,,,,,,,,,,,,,,,,,,,5fa27915a7a32b44f3b2f44a,5fb5d8d42d9b681ceb7e4f98,2020-11-19_03h31.31.209,Colour_Similarity_Experiment,2020.1.2,Win32,60,5fb5945709dec70f2d595766,,,,,,,,,,,,,,,,,,,,FF,,,,,,,,7,0.743635,,,,,,,,,,,,,,,,,,,,,,,,,,,,2,39,69,1,0,0,response1disk,8,-3,2,1,0,0,rectangle,-3,2,1,0,0,6,4,"[65,11,4,322,138,307,77,200,283,13,58,247,311,78,192,85,231,272,42,14]",-3,2,1,0,0,0,108,107,107,62,1,,,,,,,,,,,,,,,,,,,,,
,,,,,,,,,,,,,,,,,,,,,,,,,,,,,,,,,,,,,,,,,,,5fa27915a7a32b44f3b2f44a,5fb5d8d42d9b681ceb7e4f98,2020-11-19_03h31.31.209,Colour_Similarity_Experiment,2020.1.2,Win32,60,5fb5945709dec70f2d595766,,,,,,,,,,,,,,,,,,,,PF,,,,,,,,0,0.759685,,,,,,,,,,,,,,,,,,,,,,,,,,,,6,-27,51,1,0,0,response7disk,6,-3,11,1,0,0,rectangle,-3,11,1,0,0,6,6,"[65,11,4,322,138,307,77,200,283,13,58,247,311,78,192,85,231,272,42,14]",-3,11,1,0,0,0,109,108,108,0,1,,,,,,,,,,,,,,,,,,,,,
,,,,,,,,,,,,,,,,,,,,,,,,,,,,,,,,,,,,,,,,,,,5fa27915a7a32b44f3b2f44a,5fb5d8d42d9b681ceb7e4f98,2020-11-19_03h31.31.209,Colour_Similarity_Experiment,2020.1.2,Win32,60,5fb5945709dec70f2d595766,,,,,,,,,,,,,,,,,,,,FF,,,,,,,,0,0.92165,,,,,,,,,,,,,,,,,,,,,,,,,,,,2,-32,72,1,0,0,response7disk,2,10,-8,1,0,0,rectangle,10,-8,1,0,0,6,6,"[65,11,4,322,138,307,77,200,283,13,58,247,311,78,192,85,231,272,42,14]",10,-8,1,0,0,0,110,109,109,142,1,,,,,,,,,,,,,,,,,,,,,
,,,,,,,,,,,,,,,,,,,,,,,,,,,,,,,,,,,,,,,,,,,5fa27915a7a32b44f3b2f44a,5fb5d8d42d9b681ceb7e4f98,2020-11-19_03h31.31.209,Colour_Similarity_Experiment,2020.1.2,Win32,60,5fb5945709dec70f2d595766,,,,,,,,,,,,,,,,,,,,FF,,,,,,,,0,0.757935,,,,,,,,,,,,,,,,,,,,,,,,,,,,5,-32,56,1,0,0,response7disk,5,3,2,1,0,0,rectangle,3,2,1,0,0,6,3,"[65,11,4,322,138,307,77,200,283,13,58,247,311,78,192,85,231,272,42,14]",3,2,1,0,0,0,111,110,110,19,1,,,,,,,,,,,,,,,,,,,,,
,,,,,,,,,,,,,,,,,,,,,,,,,,,,,,,,,,,,,,,,,,,5fa27915a7a32b44f3b2f44a,5fb5d8d42d9b681ceb7e4f98,2020-11-19_03h31.31.209,Colour_Similarity_Experiment,2020.1.2,Win32,60,5fb5945709dec70f2d595766,,,,,,,,,,,,,,,,,,,,FF,,,,,,,,7,0.75767,,,,,,,,,,,,,,,,,,,,,,,,,,,,9,32,60,1,0,0,response1disk,7,-7,0,1,0,0,rectangle,-7,0,1,0,0,6,3,"[65,11,4,322,138,307,77,200,283,13,58,247,311,78,192,85,231,272,42,14]",-7,0,1,0,0,0,112,111,111,100,1,,,,,,,,,,,,,,,,,,,,,
,,,,,,,,,,,,,,,,,,,,,,,,,,,,,,,,,,,,,,,,,,,5fa27915a7a32b44f3b2f44a,5fb5d8d42d9b681ceb7e4f98,2020-11-19_03h31.31.209,Colour_Similarity_Experiment,2020.1.2,Win32,60,5fb5945709dec70f2d595766,,,,,,,,,,,,,,,,,,,,PF,,,,,,,,5,1.34389,,,,,,,,,,,,,,,,,,,,,,,,,,,,4,70,-34,1,0,0,response3disk,5,-6,-6,1,0,0,rectangle,-6,-6,1,0,0,6,5,"[65,11,4,322,138,307,77,200,283,13,58,247,311,78,192,85,231,272,42,14]",-6,-6,1,0,0,0,113,112,112,49,1,,,,,,,,,,,,,,,,,,,,,
,,,,,,,,,,,,,,,,,,,,,,,,,,,,,,,,,,,,,,,,,,,5fa27915a7a32b44f3b2f44a,5fb5d8d42d9b681ceb7e4f98,2020-11-19_03h31.31.209,Colour_Similarity_Experiment,2020.1.2,Win32,60,5fb5945709dec70f2d595766,,,,,,,,,,,,,,,,,,,,PF,,,,,,,,7,0.58035,,,,,,,,,,,,,,,,,,,,,,,,,,,,2,36,59,1,0,0,response1disk,7,2,-8,1,0,0,rectangle,2,-8,1,0,0,6,2,"[65,11,4,322,138,307,77,200,283,13,58,247,311,78,192,85,231,272,42,14]",2,-8,1,0,0,0,114,113,113,107,1,,,,,,,,,,,,,,,,,,,,,
,,,,,,,,,,,,,,,,,,,,,,,,,,,,,,,,,,,,,,,,,,,5fa27915a7a32b44f3b2f44a,5fb5d8d42d9b681ceb7e4f98,2020-11-19_03h31.31.209,Colour_Similarity_Experiment,2020.1.2,Win32,60,5fb5945709dec70f2d595766,,,,,,,,,,,,,,,,,,,,PF,,,,,,,,7,1.0071,,,,,,,,,,,,,,,,,,,,,,,,,,,,8,29,55,1,0,0,response1disk,6,3,13,1,0,0,rectangle,3,13,1,0,0,6,2,"[65,11,4,322,138,307,77,200,283,13,58,247,311,78,192,85,231,272,42,14]",3,13,1,0,0,0,115,114,114,161,1,,,,,,,,,,,,,,,,,,,,,
,,,,,,,,,,,,,,,,,,,,,,,,,,,,,,,,,,,,,,,,,,,5fa27915a7a32b44f3b2f44a,5fb5d8d42d9b681ceb7e4f98,2020-11-19_03h31.31.209,Colour_Similarity_Experiment,2020.1.2,Win32,60,5fb5945709dec70f2d595766,,,,,,,,,,,,,,,,,,,,FF,,,,,,,,7,0.731455,,,,,,,,,,,,,,,,,,,,,,,,,,,,2,34,54,1,0,0,response1disk,9,0,-8,1,0,0,rectangle,0,-8,1,0,0,6,0,"[65,11,4,322,138,307,77,200,283,13,58,247,311,78,192,85,231,272,42,14]",0,-8,1,0,0,0,116,115,115,72,1,,,,,,,,,,,,,,,,,,,,,
,,,,,,,,,,,,,,,,,,,,,,,,,,,,,,,,,,,,,,,,,,,5fa27915a7a32b44f3b2f44a,5fb5d8d42d9b681ceb7e4f98,2020-11-19_03h31.31.209,Colour_Similarity_Experiment,2020.1.2,Win32,60,5fb5945709dec70f2d595766,,,,,,,,,,,,,,,,,,,,FF,,,,,,,,7,1.603725,,,,,,,,,,,,,,,,,,,,,,,,,,,,3,34,66,1,0,0,response1disk,7,6,14,1,0,0,rectangle,6,14,1,0,0,6,0,"[65,11,4,322,138,307,77,200,283,13,58,247,311,78,192,85,231,272,42,14]",6,14,1,0,0,0,117,116,116,118,1,,,,,,,,,,,,,,,,,,,,,
,,,,,,,,,,,,,,,,,,,,,,,,,,,,,,,,,,,,,,,,,,,5fa27915a7a32b44f3b2f44a,5fb5d8d42d9b681ceb7e4f98,2020-11-19_03h31.31.209,Colour_Similarity_Experiment,2020.1.2,Win32,60,5fb5945709dec70f2d595766,,,,,,,,,,,,,,,,,,,,PF,,,,,,,,7,0.713215,,,,,,,,,,,,,,,,,,,,,,,,,,,,6,49,80,1,0,0,response1disk,5,12,11,1,0,0,rectangle,12,11,1,0,0,6,4,"[65,11,4,322,138,307,77,200,283,13,58,247,311,78,192,85,231,272,42,14]",12,11,1,0,0,0,118,117,117,59,1,,,,,,,,,,,,,,,,,,,,,
,,,,,,,,,,,,,,,,,,,,,,,,,,,,,,,,,,,,,,,,,,,5fa27915a7a32b44f3b2f44a,5fb5d8d42d9b681ceb7e4f98,2020-11-19_03h31.31.209,Colour_Similarity_Experiment,2020.1.2,Win32,60,5fb5945709dec70f2d595766,,,,,,,,,,,,,,,,,,,,PF,,,,,,,,0,1.44235,,,,,,,,,,,,,,,,,,,,,,,,,,,,1,-45,66,1,0,0,response7disk,1,-15,-2,1,0,0,rectangle,-15,-2,1,0,0,6,1,"[65,11,4,322,138,307,77,200,283,13,58,247,311,78,192,85,231,272,42,14]",-15,-2,1,0,0,0,119,118,118,76,1,,,,,,,,,,,,,,,,,,,,,
,,,,,,,,,,,,,,,,,,,,,,,,,,,,,,,,,,,,,,,,,,,5fa27915a7a32b44f3b2f44a,5fb5d8d42d9b681ceb7e4f98,2020-11-19_03h31.31.209,Colour_Similarity_Experiment,2020.1.2,Win32,60,5fb5945709dec70f2d595766,,,,,,,,,,,,,,,,,,,,PF,,,,,,,,4,1.777105,,,,,,,,,,,,,,,,,,,,,,,,,,,,9,31,-119,1,0,0,response3disk,8,19,-5,1,0,0,rectangle,19,-5,1,0,0,6,4,"[65,11,4,322,138,307,77,200,283,13,58,247,311,78,192,85,231,272,42,14]",19,-5,1,0,0,0,120,119,119,67,1,,,,,,,,,,,,,,,,,,,,,
,,,,,,,,,,,,,,,,,,,,,,,,,,,,,,,,,,,,,,,,,,,5fa27915a7a32b44f3b2f44a,5fb5d8d42d9b681ceb7e4f98,2020-11-19_03h31.31.209,Colour_Similarity_Experiment,2020.1.2,Win32,60,5fb5945709dec70f2d595766,,,,,,,,,,,,,,,,,,,,FF,,,,,,,,7,6.62788,,,,,,,,,,,,,,,,,,,,,,,,,,,,5,24,123,1,0,0,response1disk,2,-12,11,1,0,0,rectangle,-12,11,1,0,0,6,0,"[65,11,4,322,138,307,77,200,283,13,58,247,311,78,192,85,231,272,42,14]",-12,11,1,0,0,0,121,120,120,55,1,,,,,,,,,,,,,,,,,,,,,
,,,,,,,,,,,,,,,,,,,,,,,,,,,,,,,,,,,,,,,,,,,5fa27915a7a32b44f3b2f44a,5fb5d8d42d9b681ceb7e4f98,2020-11-19_03h31.31.209,Colour_Similarity_Experiment,2020.1.2,Win32,60,5fb5945709dec70f2d595766,,,,,,,,,,,,,,,,,,,,PF,,,,,,,,7,4.360085,,,,,,,,,,,,,,,,,,,,,,,,,,,,2,55,92,1,0,0,response1disk,8,8,9,1,0,0,rectangle,8,9,1,0,0,6,3,"[65,11,4,322,138,307,77,200,283,13,58,247,311,78,192,85,231,272,42,14]",8,9,1,0,0,0,122,121,121,52,1,,,,,,,,,,,,,,,,,,,,,
,,,,,,,,,,,,,,,,,,,,,,,,,,,,,,,,,,,,,,,,,,,5fa27915a7a32b44f3b2f44a,5fb5d8d42d9b681ceb7e4f98,2020-11-19_03h31.31.209,Colour_Similarity_Experiment,2020.1.2,Win32,60,5fb5945709dec70f2d595766,,,,,,,,,,,,,,,,,,,,FF,,,,,,,,7,1.291965,,,,,,,,,,,,,,,,,,,,,,,,,,,,1,42,76,1,0,0,response1disk,9,7,4,1,0,0,rectangle,7,4,1,0,0,6,3,"[65,11,4,322,138,307,77,200,283,13,58,247,311,78,192,85,231,272,42,14]",7,4,1,0,0,0,123,122,122,123,1,,,,,,,,,,,,,,,,,,,,,
,,,,,,,,,,,,,,,,,,,,,,,,,,,,,,,,,,,,,,,,,,,5fa27915a7a32b44f3b2f44a,5fb5d8d42d9b681ceb7e4f98,2020-11-19_03h31.31.209,Colour_Similarity_Experiment,2020.1.2,Win32,60,5fb5945709dec70f2d595766,,,,,,,,,,,,,,,,,,,,PF,,,,,,,,7,0.492475,,,,,,,,,,,,,,,,,,,,,,,,,,,,1,23,46,1,0,0,response1disk,9,-5,-2,1,0,0,rectangle,-5,-2,1,0,0,6,5,"[65,11,4,322,138,307,77,200,283,13,58,247,311,78,192,85,231,272,42,14]",-5,-2,1,0,0,0,124,123,123,15,1,,,,,,,,,,,,,,,,,,,,,
,,,,,,,,,,,,,,,,,,,,,,,,,,,,,,,,,,,,,,,,,,,5fa27915a7a32b44f3b2f44a,5fb5d8d42d9b681ceb7e4f98,2020-11-19_03h31.31.209,Colour_Similarity_Experiment,2020.1.2,Win32,60,5fb5945709dec70f2d595766,,,,,,,,,,,,,,,,,,,,FF,,,,,,,,7,0.57378,,,,,,,,,,,,,,,,,,,,,,,,,,,,6,37,60,1,0,0,response1disk,2,6,5,1,0,0,rectangle,6,5,1,0,0,6,2,"[65,11,4,322,138,307,77,200,283,13,58,247,311,78,192,85,231,272,42,14]",6,5,1,0,0,0,125,124,124,112,1,,,,,,,,,,,,,,,,,,,,,
,,,,,,,,,,,,,,,,,,,,,,,,,,,,,,,,,,,,,,,,,,,5fa27915a7a32b44f3b2f44a,5fb5d8d42d9b681ceb7e4f98,2020-11-19_03h31.31.209,Colour_Similarity_Experiment,2020.1.2,Win32,60,5fb5945709dec70f2d595766,,,,,,,,,,,,,,,,,,,,FF,,,,,,,,5,1.34719,,,,,,,,,,,,,,,,,,,,,,,,,,,,9,76,-43,1,0,0,response3disk,8,-3,0,1,0,0,rectangle,-3,0,1,0,0,6,4,"[65,11,4,322,138,307,77,200,283,13,58,247,311,78,192,85,231,272,42,14]",-3,0,1,0,0,0,126,125,125,6,1,,,,,,,,,,,,,,,,,,,,,
,,,,,,,,,,,,,,,,,,,,,,,,,,,,,,,,,,,,,,,,,,,5fa27915a7a32b44f3b2f44a,5fb5d8d42d9b681ceb7e4f98,2020-11-19_03h31.31.209,Colour_Similarity_Experiment,2020.1.2,Win32,60,5fb5945709dec70f2d595766,,,,,,,,,,,,,,,,,,,,FF,,,,,,,,7,0.480865,,,,,,,,,,,,,,,,,,,,,,,,,,,,2,29,67,1,0,0,response1disk,5,-5,-13,1,0,0,rectangle,-5,-13,1,0,0,6,1,"[65,11,4,322,138,307,77,200,283,13,58,247,311,78,192,85,231,272,42,14]",-5,-13,1,0,0,0,127,126,126,80,1,,,,,,,,,,,,,,,,,,,,,
,,,,,,,,,,,,,,,,,,,,,,,,,,,,,,,,,,,,,,,,,,,5fa27915a7a32b44f3b2f44a,5fb5d8d42d9b681ceb7e4f98,2020-11-19_03h31.31.209,Colour_Similarity_Experiment,2020.1.2,Win32,60,5fb5945709dec70f2d595766,,,,,,,,,,,,,,,,,,,,FF,,,,,,,,5,1.253775,,,,,,,,,,,,,,,,,,,,,,,,,,,,6,64,-26,1,0,0,response3disk,7,25,12,1,0,0,rectangle,25,12,1,0,0,6,7,"[65,11,4,322,138,307,77,200,283,13,58,247,311,78,192,85,231,272,42,14]",25,12,1,0,0,0,128,127,127,18,1,,,,,,,,,,,,,,,,,,,,,
,,,,,,,,,,,,,,,,,,,,,,,,,,,,,,,,,,,,,,,,,,,5fa27915a7a32b44f3b2f44a,5fb5d8d42d9b681ceb7e4f98,2020-11-19_03h31.31.209,Colour_Similarity_Experiment,2020.1.2,Win32,60,5fb5945709dec70f2d595766,,,,,,,,,,,,,,,,,,,,PF,,,,,,,,7,0.50676,,,,,,,,,,,,,,,,,,,,,,,,,,,,1,30,59,1,0,0,response1disk,3,7,2,1,0,0,rectangle,7,2,1,0,0,6,2,"[65,11,4,322,138,307,77,200,283,13,58,247,311,78,192,85,231,272,42,14]",7,2,1,0,0,0,129,128,128,1,1,,,,,,,,,,,,,,,,,,,,,
,,,,,,,,,,,,,,,,,,,,,,,,,,,,,,,,,,,,,,,,,,,5fa27915a7a32b44f3b2f44a,5fb5d8d42d9b681ceb7e4f98,2020-11-19_03h31.31.209,Colour_Similarity_Experiment,2020.1.2,Win32,60,5fb5945709dec70f2d595766,,,,,,,,,,,,,,,,,,,,FF,,,,,,,,5,1.41373,,,,,,,,,,,,,,,,,,,,,,,,,,,,6,74,-41,1,0,0,response3disk,5,-1,-3,1,0,0,rectangle,-1,-3,1,0,0,6,5,"[65,11,4,322,138,307,77,200,283,13,58,247,311,78,192,85,231,272,42,14]",-1,-3,1,0,0,0,130,129,129,126,1,,,,,,,,,,,,,,,,,,,,,
,,,,,,,,,,,,,,,,,,,,,,,,,,,,,,,,,,,,,,,,,,,5fa27915a7a32b44f3b2f44a,5fb5d8d42d9b681ceb7e4f98,2020-11-19_03h31.31.209,Colour_Similarity_Experiment,2020.1.2,Win32,60,5fb5945709dec70f2d595766,,,,,,,,,,,,,,,,,,,,PF,,,,,,,,5,2.65419,,,,,,,,,,,,,,,,,,,,,,,,,,,,7,65,-34,1,0,0,response3disk,6,-1,-5,1,0,0,rectangle,-1,-5,1,0,0,6,4,"[65,11,4,322,138,307,77,200,283,13,58,247,311,78,192,85,231,272,42,14]",-1,-5,1,0,0,0,131,130,130,29,1,,,,,,,,,,,,,,,,,,,,,
,,,,,,,,,,,,,,,,,,,,,,,,,,,,,,,,,,,,,,,,,,,5fa27915a7a32b44f3b2f44a,5fb5d8d42d9b681ceb7e4f98,2020-11-19_03h31.31.209,Colour_Similarity_Experiment,2020.1.2,Win32,60,5fb5945709dec70f2d595766,,,,,,,,,,,,,,,,,,,,FF,,,,,,,,7,1.0251,,,,,,,,,,,,,,,,,,,,,,,,,,,,7,29,51,1,0,0,response1disk,5,6,5,1,0,0,rectangle,6,5,1,0,0,6,0,"[65,11,4,322,138,307,77,200,283,13,58,247,311,78,192,85,231,272,42,14]",6,5,1,0,0,0,132,131,131,156,1,,,,,,,,,,,,,,,,,,,,,
,,,,,,,,,,,,,,,,,,,,,,,,,,,,,,,,,,,,,,,,,,,5fa27915a7a32b44f3b2f44a,5fb5d8d42d9b681ceb7e4f98,2020-11-19_03h31.31.209,Colour_Similarity_Experiment,2020.1.2,Win32,60,5fb5945709dec70f2d595766,,,,,,,,,,,,,,,,,,,,FF,,,,,,,,5,1.18701,,,,,,,,,,,,,,,,,,,,,,,,,,,,3,62,-38,1,0,0,response3disk,5,8,-12,1,0,0,rectangle,8,-12,1,0,0,6,7,"[65,11,4,322,138,307,77,200,283,13,58,247,311,78,192,85,231,272,42,14]",8,-12,1,0,0,0,133,132,132,101,1,,,,,,,,,,,,,,,,,,,,,
,,,,,,,,,,,,,,,,,,,,,,,,,,,,,,,,,,,,,,,,,,,5fa27915a7a32b44f3b2f44a,5fb5d8d42d9b681ceb7e4f98,2020-11-19_03h31.31.209,Colour_Similarity_Experiment,2020.1.2,Win32,60,5fb5945709dec70f2d595766,,,,,,,,,,,,,,,,,,,,PF,,,,,,,,7,0.973595,,,,,,,,,,,,,,,,,,,,,,,,,,,,1,29,43,1,0,0,response1disk,5,9,-4,1,0,0,rectangle,9,-4,1,0,0,6,7,"[65,11,4,322,138,307,77,200,283,13,58,247,311,78,192,85,231,272,42,14]",9,-4,1,0,0,0,134,133,133,28,1,,,,,,,,,,,,,,,,,,,,,
,,,,,,,,,,,,,,,,,,,,,,,,,,,,,,,,,,,,,,,,,,,5fa27915a7a32b44f3b2f44a,5fb5d8d42d9b681ceb7e4f98,2020-11-19_03h31.31.209,Colour_Similarity_Experiment,2020.1.2,Win32,60,5fb5945709dec70f2d595766,,,,,,,,,,,,,,,,,,,,FF,,,,,,,,0,0.847025,,,,,,,,,,,,,,,,,,,,,,,,,,,,8,-33,57,1,0,0,response7disk,8,-4,3,1,0,0,rectangle,-4,3,1,0,0,6,3,"[65,11,4,322,138,307,77,200,283,13,58,247,311,78,192,85,231,272,42,14]",-4,3,1,0,0,0,135,134,134,48,1,,,,,,,,,,,,,,,,,,,,,
,,,,,,,,,,,,,,,,,,,,,,,,,,,,,,,,,,,,,,,,,,,5fa27915a7a32b44f3b2f44a,5fb5d8d42d9b681ceb7e4f98,2020-11-19_03h31.31.209,Colour_Similarity_Experiment,2020.1.2,Win32,60,5fb5945709dec70f2d595766,,,,,,,,,,,,,,,,,,,,PF,,,,,,,,6,2.05412,,,,,,,,,,,,,,,,,,,,,,,,,,,,6,90,26,1,0,0,response1disk,7,29,-2,1,0,0,rectangle,29,-2,1,0,0,6,5,"[65,11,4,322,138,307,77,200,283,13,58,247,311,78,192,85,231,272,42,14]",29,-2,1,0,0,0,136,135,135,50,1,,,,,,,,,,,,,,,,,,,,,
,,,,,,,,,,,,,,,,,,,,,,,,,,,,,,,,,,,,,,,,,,,5fa27915a7a32b44f3b2f44a,5fb5d8d42d9b681ceb7e4f98,2020-11-19_03h31.31.209,Colour_Similarity_Experiment,2020.1.2,Win32,60,5fb5945709dec70f2d595766,,,,,,,,,,,,,,,,,,,,FF,,,,,,,,7,1.132245,,,,,,,,,,,,,,,,,,,,,,,,,,,,1,27,67,1,0,0,response1disk,4,8,4,1,0,0,rectangle,8,4,1,0,0,6,2,"[65,11,4,322,138,307,77,200,283,13,58,247,311,78,192,85,231,272,42,14]",8,4,1,0,0,0,137,136,136,135,1,,,,,,,,,,,,,,,,,,,,,
,,,,,,,,,,,,,,,,,,,,,,,,,,,,,,,,,,,,,,,,,,,5fa27915a7a32b44f3b2f44a,5fb5d8d42d9b681ceb7e4f98,2020-11-19_03h31.31.209,Colour_Similarity_Experiment,2020.1.2,Win32,60,5fb5945709dec70f2d595766,,,,,,,,,,,,,,,,,,,,PF,,,,,,,,7,0.66673,,,,,,,,,,,,,,,,,,,,,,,,,,,,8,44,69,1,0,0,response1disk,5,3,4,1,0,0,rectangle,48,-68,1,0,0,4,4,"[65,11,4,322,138,307,77,200,283,13,58,247,311,78,192,85,231,272,42,14]",11,14,1,0,0,0,138,137,137,98,1,response3disk_3,rectangle,,,,,,,,,,,,,,,,,,,
,,,,,,,,,,,,,,,,,,,,,,,,,,,,,,,,,,,,,,,,,,,5fa27915a7a32b44f3b2f44a,5fb5d8d42d9b681ceb7e4f98,2020-11-19_03h31.31.209,Colour_Similarity_Experiment,2020.1.2,Win32,60,5fb5945709dec70f2d595766,,,,,,,,,,,,,,,,,,,,FF,,,,,,,,7,1.10713,,,,,,,,,,,,,,,,,,,,,,,,,,,,9,30,79,1,0,0,response1disk,6,-7,7,1,0,0,rectangle,-7,7,1,0,0,4,2,"[65,11,4,322,138,307,77,200,283,13,58,247,311,78,192,85,231,272,42,14]",-7,7,1,0,0,0,139,138,138,117,1,,,,,,,,,,,,,,,,,,,,,
,,,,,,,,,,,,,,,,,,,,,,,,,,,,,,,,,,,,,,,,,,,5fa27915a7a32b44f3b2f44a,5fb5d8d42d9b681ceb7e4f98,2020-11-19_03h31.31.209,Colour_Similarity_Experiment,2020.1.2,Win32,60,5fb5945709dec70f2d595766,,,,,,,,,,,,,,,,,,,,PF,,,,,,,,7,0.56029,,,,,,,,,,,,,,,,,,,,,,,,,,,,1,38,63,1,0,0,response1disk,6,15,-2,1,0,0,rectangle,15,-2,1,0,0,4,2,"[65,11,4,322,138,307,77,200,283,13,58,247,311,78,192,85,231,272,42,14]",15,-2,1,0,0,0,140,139,139,144,1,,,,,,,,,,,,,,,,,,,,,
,,,,,,,,,,,,,,,,,,,,,,,,,,,,,,,,,,,,,,,,,,,5fa27915a7a32b44f3b2f44a,5fb5d8d42d9b681ceb7e4f98,2020-11-19_03h31.31.209,Colour_Similarity_Experiment,2020.1.2,Win32,60,5fb5945709dec70f2d595766,,,,,,,,,,,,,,,,,,,,FF,,,,,,,,0,0.77376,,,,,,,,,,,,,,,,,,,,,,,,,,,,3,-40,84,1,0,0,response7disk,3,3,15,1,0,0,rectangle,3,15,1,0,0,4,1,"[65,11,4,322,138,307,77,200,283,13,58,247,311,78,192,85,231,272,42,14]",3,15,1,0,0,0,141,140,140,68,1,,,,,,,,,,,,,,,,,,,,,
,,,,,,,,,,,,,,,,,,,,,,,,,,,,,,,,,,,,,,,,,,,5fa27915a7a32b44f3b2f44a,5fb5d8d42d9b681ceb7e4f98,2020-11-19_03h31.31.209,Colour_Similarity_Experiment,2020.1.2,Win32,60,5fb5945709dec70f2d595766,,,,,,,,,,,,,,,,,,,,FF,,,,,,,,7,0.90703,,,,,,,,,,,,,,,,,,,,,,,,,,,,7,21,72,1,0,0,response1disk,4,5,10,1,0,0,rectangle,5,10,1,0,0,4,5,"[65,11,4,322,138,307,77,200,283,13,58,247,311,78,192,85,231,272,42,14]",5,10,1,0,0,0,142,141,141,158,1,,,,,,,,,,,,,,,,,,,,,
,,,,,,,,,,,,,,,,,,,,,,,,,,,,,,,,,,,,,,,,,,,5fa27915a7a32b44f3b2f44a,5fb5d8d42d9b681ceb7e4f98,2020-11-19_03h31.31.209,Colour_Similarity_Experiment,2020.1.2,Win32,60,5fb5945709dec70f2d595766,,,,,,,,,,,,,,,,,,,,PF,,,,,,,,7,1.04041,,,,,,,,,,,,,,,,,,,,,,,,,,,,5,29,77,1,0,0,response1disk,7,2,7,1,0,0,rectangle,2,7,1,0,0,4,4,"[65,11,4,322,138,307,77,200,283,13,58,247,311,78,192,85,231,272,42,14]",2,7,1,0,0,0,143,142,142,146,1,,,,,,,,,,,,,,,,,,,,,
,,,,,,,,,,,,,,,,,,,,,,,,,,,,,,,,,,,,,,,,,,,5fa27915a7a32b44f3b2f44a,5fb5d8d42d9b681ceb7e4f98,2020-11-19_03h31.31.209,Colour_Similarity_Experiment,2020.1.2,Win32,60,5fb5945709dec70f2d595766,,,,,,,,,,,,,,,,,,,,FF,,,,,,,,7,0.88161,,,,,,,,,,,,,,,,,,,,,,,,,,,,9,28,58,1,0,0,response1disk,5,0,-10,1,0,0,rectangle,0,-10,1,0,0,4,3,"[65,11,4,322,138,307,77,200,283,13,58,247,311,78,192,85,231,272,42,14]",0,-10,1,0,0,0,144,143,143,128,1,,,,,,,,,,,,,,,,,,,,,
,,,,,,,,,,,,,,,,,,,,,,,,,,,,,,,,,,,,,,,,,,,5fa27915a7a32b44f3b2f44a,5fb5d8d42d9b681ceb7e4f98,2020-11-19_03h31.31.209,Colour_Similarity_Experiment,2020.1.2,Win32,60,5fb5945709dec70f2d595766,,,,,,,,,,,,,,,,,,,,PF,,,,,,,,7,0.893965,,,,,,,,,,,,,,,,,,,,,,,,,,,,8,34,68,1,0,0,response1disk,1,21,13,1,0,0,rectangle,21,13,1,0,0,4,7,"[65,11,4,322,138,307,77,200,283,13,58,247,311,78,192,85,231,272,42,14]",21,13,1,0,0,0,145,144,144,57,1,,,,,,,,,,,,,,,,,,,,,
,,,,,,,,,,,,,,,,,,,,,,,,,,,,,,,,,,,,,,,,,,,5fa27915a7a32b44f3b2f44a,5fb5d8d42d9b681ceb7e4f98,2020-11-19_03h31.31.209,Colour_Similarity_Experiment,2020.1.2,Win32,60,5fb5945709dec70f2d595766,,,,,,,,,,,,,,,,,,,,FF,,,,,,,,7,0.613465,,,,,,,,,,,,,,,,,,,,,,,,,,,,5,30,74,1,0,0,response1disk,1,10,18,1,0,0,rectangle,10,18,1,0,0,4,7,"[65,11,4,322,138,307,77,200,283,13,58,247,311,78,192,85,231,272,42,14]",10,18,1,0,0,0,146,145,145,131,1,,,,,,,,,,,,,,,,,,,,,
,,,,,,,,,,,,,,,,,,,,,,,,,,,,,,,,,,,,,,,,,,,5fa27915a7a32b44f3b2f44a,5fb5d8d42d9b681ceb7e4f98,2020-11-19_03h31.31.209,Colour_Similarity_Experiment,2020.1.2,Win32,60,5fb5945709dec70f2d595766,,,,,,,,,,,,,,,,,,,,FF,,,,,,,,6,1.546995,,,,,,,,,,,,,,,,,,,,,,,,,,,,5,65,38,1,0,0,response1disk,3,21,15,1,0,0,rectangle,21,15,1,0,0,4,7,"[65,11,4,322,138,307,77,200,283,13,58,247,311,78,192,85,231,272,42,14]",21,15,1,0,0,0,147,146,146,25,1,,,,,,,,,,,,,,,,,,,,,
,,,,,,,,,,,,,,,,,,,,,,,,,,,,,,,,,,,,,,,,,,,5fa27915a7a32b44f3b2f44a,5fb5d8d42d9b681ceb7e4f98,2020-11-19_03h31.31.209,Colour_Similarity_Experiment,2020.1.2,Win32,60,5fb5945709dec70f2d595766,,,,,,,,,,,,,,,,,,,,PF,,,,,,,,7,0.80027,,,,,,,,,,,,,,,,,,,,,,,,,,,,9,30,63,1,0,0,response1disk,3,12,-1,1,0,0,rectangle,12,-1,1,0,0,4,3,"[65,11,4,322,138,307,77,200,283,13,58,247,311,78,192,85,231,272,42,14]",12,-1,1,0,0,0,148,147,147,119,1,,,,,,,,,,,,,,,,,,,,,
,,,,,,,,,,,,,,,,,,,,,,,,,,,,,,,,,,,,,,,,,,,5fa27915a7a32b44f3b2f44a,5fb5d8d42d9b681ceb7e4f98,2020-11-19_03h31.31.209,Colour_Similarity_Experiment,2020.1.2,Win32,60,5fb5945709dec70f2d595766,,,,,,,,,,,,,,,,,,,,FF,,,,,,,,7,0.680765,,,,,,,,,,,,,,,,,,,,,,,,,,,,1,38,63,1,0,0,response1disk,3,17,2,1,0,0,rectangle,17,2,1,0,0,4,0,"[65,11,4,322,138,307,77,200,283,13,58,247,311,78,192,85,231,272,42,14]",17,2,1,0,0,0,149,148,148,99,1,,,,,,,,,,,,,,,,,,,,,
,,,,,,,,,,,,,,,,,,,,,,,,,,,,,,,,,,,,,,,,,,,5fa27915a7a32b44f3b2f44a,5fb5d8d42d9b681ceb7e4f98,2020-11-19_03h31.31.209,Colour_Similarity_Experiment,2020.1.2,Win32,60,5fb5945709dec70f2d595766,,,,,,,,,,,,,,,,,,,,PF,,,,,,,,7,1.065995,,,,,,,,,,,,,,,,,,,,,,,,,,,,6,36,69,1,0,0,response1disk,9,16,13,1,0,0,rectangle,16,13,1,0,0,4,5,"[65,11,4,322,138,307,77,200,283,13,58,247,311,78,192,85,231,272,42,14]",16,13,1,0,0,0,150,149,149,45,1,,,,,,,,,,,,,,,,,,,,,
,,,,,,,,,,,,,,,,,,,,,,,,,,,,,,,,,,,,,,,,,,,5fa27915a7a32b44f3b2f44a,5fb5d8d42d9b681ceb7e4f98,2020-11-19_03h31.31.209,Colour_Similarity_Experiment,2020.1.2,Win32,60,5fb5945709dec70f2d595766,,,,,,,,,,,,,,,,,,,,FF,,,,,,,,7,0.82677,,,,,,,,,,,,,,,,,,,,,,,,,,,,5,34,73,1,0,0,response1disk,8,16,16,1,0,0,rectangle,16,16,1,0,0,4,5,"[65,11,4,322,138,307,77,200,283,13,58,247,311,78,192,85,231,272,42,14]",16,16,1,0,0,0,151,150,150,16,1,,,,,,,,,,,,,,,,,,,,,
,,,,,,,,,,,,,,,,,,,,,,,,,,,,,,,,,,,,,,,,,,,5fa27915a7a32b44f3b2f44a,5fb5d8d42d9b681ceb7e4f98,2020-11-19_03h31.31.209,Colour_Similarity_Experiment,2020.1.2,Win32,60,5fb5945709dec70f2d595766,,,,,,,,,,,,,,,,,,,,FF,,,,,,,,0,0.73361,,,,,,,,,,,,,,,,,,,,,,,,,,,,6,-37,69,1,0,0,response7disk,6,1,12,1,0,0,rectangle,1,12,1,0,0,4,7,"[65,11,4,322,138,307,77,200,283,13,58,247,311,78,192,85,231,272,42,14]",1,12,1,0,0,0,152,151,151,91,1,,,,,,,,,,,,,,,,,,,,,
,,,,,,,,,,,,,,,,,,,,,,,,,,,,,,,,,,,,,,,,,,,5fa27915a7a32b44f3b2f44a,5fb5d8d42d9b681ceb7e4f98,2020-11-19_03h31.31.209,Colour_Similarity_Experiment,2020.1.2,Win32,60,5fb5945709dec70f2d595766,,,,,,,,,,,,,,,,,,,,PF,,,,,,,,7,0.506795,,,,,,,,,,,,,,,,,,,,,,,,,,,,3,29,70,1,0,0,response1disk,1,1,4,1,0,0,rectangle,1,4,1,0,0,4,4,"[65,11,4,322,138,307,77,200,283,13,58,247,311,78,192,85,231,272,42,14]",1,4,1,0,0,0,153,152,152,96,1,,,,,,,,,,,,,,,,,,,,,
,,,,,,,,,,,,,,,,,,,,,,,,,,,,,,,,,,,,,,,,,,,5fa27915a7a32b44f3b2f44a,5fb5d8d42d9b681ceb7e4f98,2020-11-19_03h31.31.209,Colour_Similarity_Experiment,2020.1.2,Win32,60,5fb5945709dec70f2d595766,,,,,,,,,,,,,,,,,,,,PF,,,,,,,,7,0.84028,,,,,,,,,,,,,,,,,,,,,,,,,,,,2,50,81,1,0,0,response1disk,1,6,-15,1,0,0,rectangle,6,-15,1,0,0,4,7,"[65,11,4,322,138,307,77,200,283,13,58,247,311,78,192,85,231,272,42,14]",6,-15,1,0,0,0,154,153,153,9,1,,,,,,,,,,,,,,,,,,,,,
,,,,,,,,,,,,,,,,,,,,,,,,,,,,,,,,,,,,,,,,,,,5fa27915a7a32b44f3b2f44a,5fb5d8d42d9b681ceb7e4f98,2020-11-19_03h31.31.209,Colour_Similarity_Experiment,2020.1.2,Win32,60,5fb5945709dec70f2d595766,,,,,,,,,,,,,,,,,,,,PF,,,,,,,,7,0.533745,,,,,,,,,,,,,,,,,,,,,,,,,,,,8,29,50,1,0,0,response1disk,3,2,4,1,0,0,rectangle,2,4,1,0,0,4,1,"[65,11,4,322,138,307,77,200,283,13,58,247,311,78,192,85,231,272,42,14]",2,4,1,0,0,0,155,154,154,71,1,,,,,,,,,,,,,,,,,,,,,
,,,,,,,,,,,,,,,,,,,,,,,,,,,,,,,,,,,,,,,,,,,5fa27915a7a32b44f3b2f44a,5fb5d8d42d9b681ceb7e4f98,2020-11-19_03h31.31.209,Colour_Similarity_Experiment,2020.1.2,Win32,60,5fb5945709dec70f2d595766,,,,,,,,,,,,,,,,,,,,PF,,,,,,,,7,0.653815,,,,,,,,,,,,,,,,,,,,,,,,,,,,6,30,60,1,0,0,response1disk,8,10,16,1,0,0,rectangle,10,16,1,0,0,4,1,"[65,11,4,322,138,307,77,200,283,13,58,247,311,78,192,85,231,272,42,14]",10,16,1,0,0,0,156,155,155,64,1,,,,,,,,,,,,,,,,,,,,,
,,,,,,,,,,,,,,,,,,,,,,,,,,,,,,,,,,,,,,,,,,,5fa27915a7a32b44f3b2f44a,5fb5d8d42d9b681ceb7e4f98,2020-11-19_03h31.31.209,Colour_Similarity_Experiment,2020.1.2,Win32,60,5fb5945709dec70f2d595766,,,,,,,,,,,,,,,,,,,,FF,,,,,,,,7,0.546975,,,,,,,,,,,,,,,,,,,,,,,,,,,,3,28,56,1,0,0,response1disk,1,8,12,1,0,0,rectangle,8,12,1,0,0,4,5,"[65,11,4,322,138,307,77,200,283,13,58,247,311,78,192,85,231,272,42,14]",8,12,1,0,0,0,157,156,156,125,1,,,,,,,,,,,,,,,,,,,,,
,,,,,,,,,,,,,,,,,,,,,,,,,,,,,,,,,,,,,,,,,,,5fa27915a7a32b44f3b2f44a,5fb5d8d42d9b681ceb7e4f98,2020-11-19_03h31.31.209,Colour_Similarity_Experiment,2020.1.2,Win32,60,5fb5945709dec70f2d595766,,,,,,,,,,,,,,,,,,,,FF,,,,,,,,7,0.78714,,,,,,,,,,,,,,,,,,,,,,,,,,,,7,31,61,1,0,0,response1disk,8,7,15,1,0,0,rectangle,7,15,1,0,0,4,5,"[65,11,4,322,138,307,77,200,283,13,58,247,311,78,192,85,231,272,42,14]",7,15,1,0,0,0,158,157,157,97,1,,,,,,,,,,,,,,,,,,,,,
,,,,,,,,,,,,,,,,,,,,,,,,,,,,,,,,,,,,,,,,,,,5fa27915a7a32b44f3b2f44a,5fb5d8d42d9b681ceb7e4f98,2020-11-19_03h31.31.209,Colour_Similarity_Experiment,2020.1.2,Win32,60,5fb5945709dec70f2d595766,,,,,,,,,,,,,,,,,,,,FF,,,,,,,,7,0.720095,,,,,,,,,,,,,,,,,,,,,,,,,,,,7,32,57,1,0,0,response1disk,6,18,10,1,0,0,rectangle,18,10,1,0,0,4,4,"[65,11,4,322,138,307,77,200,283,13,58,247,311,78,192,85,231,272,42,14]",18,10,1,0,0,0,159,158,158,31,1,,,,,,,,,,,,,,,,,,,,,
,,,,,,,,,,,,,,,,,,,,,,,,,,,,,,,,,,,,,,,,,,,5fa27915a7a32b44f3b2f44a,5fb5d8d42d9b681ceb7e4f98,2020-11-19_03h31.31.209,Colour_Similarity_Experiment,2020.1.2,Win32,60,5fb5945709dec70f2d595766,,,,,,,,,,,,,,,,,,,,PF,,,,,,,,7,1.240575,,,,,,,,,,,,,,,,,,,,,,,,,,,,7,30,68,1,0,0,response1disk,3,7,14,1,0,0,rectangle,7,14,1,0,0,4,6,"[65,11,4,322,138,307,77,200,283,13,58,247,311,78,192,85,231,272,42,14]",7,14,1,0,0,0,160,159,159,81,1,,,,,,,,,,,,,,,,,,,,,
,,,,,,,,,,,,,,,,,,,,,,,,,,,,,,,,,,,,,,,,,,,5fa27915a7a32b44f3b2f44a,5fb5d8d42d9b681ceb7e4f98,2020-11-19_03h31.31.209,Colour_Similarity_Experiment,2020.1.2,Win32,60,5fb5945709dec70f2d595766,,,,,,,,,,,,,,,,,,,,FF,,,,,,,,7,0.626255,,,,,,,,,,,,,,,,,,,,,,,,,,,,3,34,68,1,0,0,response1disk,8,12,18,1,0,0,rectangle,12,18,1,0,0,4,6,"[65,11,4,322,138,307,77,200,283,13,58,247,311,78,192,85,231,272,42,14]",12,18,1,0,0,0,161,160,160,44,1,,,,,,,,,,,,,,,,,,,,,
,,,,,,,,,,,,,,,,,,,,,,,,,,,,,,,,,,,,,,,,,,,5fa27915a7a32b44f3b2f44a,5fb5d8d42d9b681ceb7e4f98,2020-11-19_03h31.31.209,Colour_Similarity_Experiment,2020.1.2,Win32,60,5fb5945709dec70f2d595766,,,,,,,,,,,,,,,,,,,,FF,,,,,,,,7,0.48938,,,,,,,,,,,,,,,,,,,,,,,,,,,,4,35,65,1,0,0,response1disk,2,15,18,1,0,0,rectangle,15,18,1,0,0,4,3,"[65,11,4,322,138,307,77,200,283,13,58,247,311,78,192,85,231,272,42,14]",15,18,1,0,0,0,162,161,161,13,1,,,,,,,,,,,,,,,,,,,,,
,,,,,,,,,,,,,,,,,,,,,,,,,,,,,,,,,,,,,,,,,,,5fa27915a7a32b44f3b2f44a,5fb5d8d42d9b681ceb7e4f98,2020-11-19_03h31.31.209,Colour_Similarity_Experiment,2020.1.2,Win32,60,5fb5945709dec70f2d595766,,,,,,,,,,,,,,,,,,,,,,,,,,,,,,,,,,,,,,,,,,,,,,,,,,,,,,,,,,,,,,,,,,,,,,,,,,,,,,,,,,,,,,,,,,,,0,0,0,0,1,,,,,,,,,,,,,,
,,,,,,,,,,,,,,,,,,,,,,,,,,,,,,,,,,,,,,,,,,,5fa27915a7a32b44f3b2f44a,5fb5d8d42d9b681ceb7e4f98,2020-11-19_03h31.31.209,Colour_Similarity_Experiment,2020.1.2,Win32,60,5fb5945709dec70f2d595766,,,,,,,,,,,,,,,,,,,,PF,,,,,,,,0,1.000065,,,,,,,,,,,,,,,,,,,,,,,,,,,,4,-24,69,1,0,0,response7disk,3,1,9,1,0,0,rectangle,1,9,1,0,0,4,1,"[65,11,4,322,138,307,77,200,283,13,58,247,311,78,192,85,231,272,42,14]",1,9,1,0,0,0,163,0,0,89,1,,,,,,,,,,,,,,,,,,,,,
,,,,,,,,,,,,,,,,,,,,,,,,,,,,,,,,,,,,,,,,,,,5fa27915a7a32b44f3b2f44a,5fb5d8d42d9b681ceb7e4f98,2020-11-19_03h31.31.209,Colour_Similarity_Experiment,2020.1.2,Win32,60,5fb5945709dec70f2d595766,,,,,,,,,,,,,,,,,,,,PF,,,,,,,,7,0.70684,,,,,,,,,,,,,,,,,,,,,,,,,,,,4,34,66,1,0,0,response1disk,2,13,10,1,0,0,rectangle,13,10,1,0,0,4,5,"[65,11,4,322,138,307,77,200,283,13,58,247,311,78,192,85,231,272,42,14]",13,10,1,0,0,0,164,1,1,108,1,,,,,,,,,,,,,,,,,,,,,
,,,,,,,,,,,,,,,,,,,,,,,,,,,,,,,,,,,,,,,,,,,5fa27915a7a32b44f3b2f44a,5fb5d8d42d9b681ceb7e4f98,2020-11-19_03h31.31.209,Colour_Similarity_Experiment,2020.1.2,Win32,60,5fb5945709dec70f2d595766,,,,,,,,,,,,,,,,,,,,FF,,,,,,,,6,1.249985,,,,,,,,,,,,,,,,,,,,,,,,,,,,4,61,42,1,0,0,response1disk,5,-9,-21,1,0,0,rectangle,-9,-21,1,0,0,4,5,"[65,11,4,322,138,307,77,200,283,13,58,247,311,78,192,85,231,272,42,14]",-9,-21,1,0,0,0,165,2,2,116,1,,,,,,,,,,,,,,,,,,,,,
,,,,,,,,,,,,,,,,,,,,,,,,,,,,,,,,,,,,,,,,,,,5fa27915a7a32b44f3b2f44a,5fb5d8d42d9b681ceb7e4f98,2020-11-19_03h31.31.209,Colour_Similarity_Experiment,2020.1.2,Win32,60,5fb5945709dec70f2d595766,,,,,,,,,,,,,,,,,,,,PF,,,,,,,,7,0.54777,,,,,,,,,,,,,,,,,,,,,,,,,,,,4,28,57,1,0,0,response1disk,7,0,0,1,0,0,rectangle,0,0,1,0,0,4,0,"[65,11,4,322,138,307,77,200,283,13,58,247,311,78,192,85,231,272,42,14]",0,0,1,0,0,0,166,3,3,38,1,,,,,,,,,,,,,,,,,,,,,
,,,,,,,,,,,,,,,,,,,,,,,,,,,,,,,,,,,,,,,,,,,5fa27915a7a32b44f3b2f44a,5fb5d8d42d9b681ceb7e4f98,2020-11-19_03h31.31.209,Colour_Similarity_Experiment,2020.1.2,Win32,60,5fb5945709dec70f2d595766,,,,,,,,,,,,,,,,,,,,PF,,,,,,,,7,0.90702,,,,,,,,,,,,,,,,,,,,,,,,,,,,9,29,61,1,0,0,response1disk,6,12,15,1,0,0,rectangle,12,15,1,0,0,4,4,"[65,11,4,322,138,307,77,200,283,13,58,247,311,78,192,85,231,272,42,14]",12,15,1,0,0,0,167,4,4,148,1,,,,,,,,,,,,,,,,,,,,,
,,,,,,,,,,,,,,,,,,,,,,,,,,,,,,,,,,,,,,,,,,,5fa27915a7a32b44f3b2f44a,5fb5d8d42d9b681ceb7e4f98,2020-11-19_03h31.31.209,Colour_Similarity_Experiment,2020.1.2,Win32,60,5fb5945709dec70f2d595766,,,,,,,,,,,,,,,,,,,,PF,,,,,,,,7,0.653775,,,,,,,,,,,,,,,,,,,,,,,,,,,,7,34,59,1,0,0,response1disk,9,13,8,1,0,0,rectangle,13,8,1,0,0,4,5,"[65,11,4,322,138,307,77,200,283,13,58,247,311,78,192,85,231,272,42,14]",13,8,1,0,0,0,168,5,5,10,1,,,,,,,,,,,,,,,,,,,,,
,,,,,,,,,,,,,,,,,,,,,,,,,,,,,,,,,,,,,,,,,,,5fa27915a7a32b44f3b2f44a,5fb5d8d42d9b681ceb7e4f98,2020-11-19_03h31.31.209,Colour_Similarity_Experiment,2020.1.2,Win32,60,5fb5945709dec70f2d595766,,,,,,,,,,,,,,,,,,,,FF,,,,,,,,7,0.77233,,,,,,,,,,,,,,,,,,,,,,,,,,,,1,25,70,1,0,0,response1disk,6,13,15,1,0,0,rectangle,13,15,1,0,0,4,5,"[65,11,4,322,138,307,77,200,283,13,58,247,311,78,192,85,231,272,42,14]",13,15,1,0,0,0,169,6,6,58,1,,,,,,,,,,,,,,,,,,,,,
,,,,,,,,,,,,,,,,,,,,,,,,,,,,,,,,,,,,,,,,,,,5fa27915a7a32b44f3b2f44a,5fb5d8d42d9b681ceb7e4f98,2020-11-19_03h31.31.209,Colour_Similarity_Experiment,2020.1.2,Win32,60,5fb5945709dec70f2d595766,,,,,,,,,,,,,,,,,,,,PF,,,,,,,,7,0.44027,,,,,,,,,,,,,,,,,,,,,,,,,,,,3,32,52,1,0,0,response1disk,7,10,4,1,0,0,rectangle,10,4,1,0,0,4,1,"[65,11,4,322,138,307,77,200,283,13,58,247,311,78,192,85,231,272,42,14]",10,4,1,0,0,0,170,7,7,41,1,,,,,,,,,,,,,,,,,,,,,
,,,,,,,,,,,,,,,,,,,,,,,,,,,,,,,,,,,,,,,,,,,5fa27915a7a32b44f3b2f44a,5fb5d8d42d9b681ceb7e4f98,2020-11-19_03h31.31.209,Colour_Similarity_Experiment,2020.1.2,Win32,60,5fb5945709dec70f2d595766,,,,,,,,,,,,,,,,,,,,FF,,,,,,,,0,0.893735,,,,,,,,,,,,,,,,,,,,,,,,,,,,4,-40,76,1,0,0,response7disk,3,1,18,1,0,0,rectangle,1,18,1,0,0,4,1,"[65,11,4,322,138,307,77,200,283,13,58,247,311,78,192,85,231,272,42,14]",1,18,1,0,0,0,171,8,8,77,1,,,,,,,,,,,,,,,,,,,,,
,,,,,,,,,,,,,,,,,,,,,,,,,,,,,,,,,,,,,,,,,,,5fa27915a7a32b44f3b2f44a,5fb5d8d42d9b681ceb7e4f98,2020-11-19_03h31.31.209,Colour_Similarity_Experiment,2020.1.2,Win32,60,5fb5945709dec70f2d595766,,,,,,,,,,,,,,,,,,,,PF,,,,,,,,7,0.493165,,,,,,,,,,,,,,,,,,,,,,,,,,,,2,29,73,1,0,0,response1disk,3,17,14,1,0,0,rectangle,17,14,1,0,0,4,7,"[65,11,4,322,138,307,77,200,283,13,58,247,311,78,192,85,231,272,42,14]",17,14,1,0,0,0,172,9,9,69,1,,,,,,,,,,,,,,,,,,,,,
,,,,,,,,,,,,,,,,,,,,,,,,,,,,,,,,,,,,,,,,,,,5fa27915a7a32b44f3b2f44a,5fb5d8d42d9b681ceb7e4f98,2020-11-19_03h31.31.209,Colour_Similarity_Experiment,2020.1.2,Win32,60,5fb5945709dec70f2d595766,,,,,,,,,,,,,,,,,,,,FF,,,,,,,,7,0.40024,,,,,,,,,,,,,,,,,,,,,,,,,,,,8,35,64,1,0,0,response1disk,3,7,-5,1,0,0,rectangle,7,-5,1,0,0,4,1,"[65,11,4,322,138,307,77,200,283,13,58,247,311,78,192,85,231,272,42,14]",7,-5,1,0,0,0,173,10,10,154,1,,,,,,,,,,,,,,,,,,,,,
,,,,,,,,,,,,,,,,,,,,,,,,,,,,,,,,,,,,,,,,,,,5fa27915a7a32b44f3b2f44a,5fb5d8d42d9b681ceb7e4f98,2020-11-19_03h31.31.209,Colour_Similarity_Experiment,2020.1.2,Win32,60,5fb5945709dec70f2d595766,,,,,,,,,,,,,,,,,,,,FF,,,,,,,,7,0.53359,,,,,,,,,,,,,,,,,,,,,,,,,,,,8,37,57,1,0,0,response1disk,2,14,-1,1,0,0,rectangle,14,-1,1,0,0,4,1,"[65,11,4,322,138,307,77,200,283,13,58,247,311,78,192,85,231,272,42,14]",14,-1,1,0,0,0,174,11,11,22,1,,,,,,,,,,,,,,,,,,,,,
,,,,,,,,,,,,,,,,,,,,,,,,,,,,,,,,,,,,,,,,,,,5fa27915a7a32b44f3b2f44a,5fb5d8d42d9b681ceb7e4f98,2020-11-19_03h31.31.209,Colour_Similarity_Experiment,2020.1.2,Win32,60,5fb5945709dec70f2d595766,,,,,,,,,,,,,,,,,,,,FF,,,,,,,,7,0.587025,,,,,,,,,,,,,,,,,,,,,,,,,,,,4,23,71,1,0,0,response1disk,6,6,18,1,0,0,rectangle,6,18,1,0,0,4,5,"[65,11,4,322,138,307,77,200,283,13,58,247,311,78,192,85,231,272,42,14]",6,18,1,0,0,0,175,12,12,122,1,,,,,,,,,,,,,,,,,,,,,
,,,,,,,,,,,,,,,,,,,,,,,,,,,,,,,,,,,,,,,,,,,5fa27915a7a32b44f3b2f44a,5fb5d8d42d9b681ceb7e4f98,2020-11-19_03h31.31.209,Colour_Similarity_Experiment,2020.1.2,Win32,60,5fb5945709dec70f2d595766,,,,,,,,,,,,,,,,,,,,PF,,,,,,,,7,0.948645,,,,,,,,,,,,,,,,,,,,,,,,,,,,2,35,70,1,0,0,response1disk,4,11,2,1,0,0,rectangle,11,2,1,0,0,4,3,"[65,11,4,322,138,307,77,200,283,13,58,247,311,78,192,85,231,272,42,14]",11,2,1,0,0,0,176,13,13,127,1,,,,,,,,,,,,,,,,,,,,,
,,,,,,,,,,,,,,,,,,,,,,,,,,,,,,,,,,,,,,,,,,,5fa27915a7a32b44f3b2f44a,5fb5d8d42d9b681ceb7e4f98,2020-11-19_03h31.31.209,Colour_Similarity_Experiment,2020.1.2,Win32,60,5fb5945709dec70f2d595766,,,,,,,,,,,,,,,,,,,,PF,,,,,,,,7,0.3737,,,,,,,,,,,,,,,,,,,,,,,,,,,,8,36,69,1,0,0,response1disk,2,7,0,1,0,0,rectangle,7,0,1,0,0,4,5,"[65,11,4,322,138,307,77,200,283,13,58,247,311,78,192,85,231,272,42,14]",7,0,1,0,0,0,177,14,14,83,1,,,,,,,,,,,,,,,,,,,,,
,,,,,,,,,,,,,,,,,,,,,,,,,,,,,,,,,,,,,,,,,,,5fa27915a7a32b44f3b2f44a,5fb5d8d42d9b681ceb7e4f98,2020-11-19_03h31.31.209,Colour_Similarity_Experiment,2020.1.2,Win32,60,5fb5945709dec70f2d595766,,,,,,,,,,,,,,,,,,,,FF,,,,,,,,7,0.41358,,,,,,,,,,,,,,,,,,,,,,,,,,,,6,29,55,1,0,0,response1disk,8,10,-3,1,0,0,rectangle,10,-3,1,0,0,4,4,"[65,11,4,322,138,307,77,200,283,13,58,247,311,78,192,85,231,272,42,14]",10,-3,1,0,0,0,178,15,15,133,1,,,,,,,,,,,,,,,,,,,,,
,,,,,,,,,,,,,,,,,,,,,,,,,,,,,,,,,,,,,,,,,,,5fa27915a7a32b44f3b2f44a,5fb5d8d42d9b681ceb7e4f98,2020-11-19_03h31.31.209,Colour_Similarity_Experiment,2020.1.2,Win32,60,5fb5945709dec70f2d595766,,,,,,,,,,,,,,,,,,,,PF,,,,,,,,7,0.83984,,,,,,,,,,,,,,,,,,,,,,,,,,,,4,32,69,1,0,0,response1disk,8,13,21,1,0,0,rectangle,13,21,1,0,0,4,0,"[65,11,4,322,138,307,77,200,283,13,58,247,311,78,192,85,231,272,42,14]",13,21,1,0,0,0,179,16,16,124,1,,,,,,,,,,,,,,,,,,,,,
,,,,,,,,,,,,,,,,,,,,,,,,,,,,,,,,,,,,,,,,,,,5fa27915a7a32b44f3b2f44a,5fb5d8d42d9b681ceb7e4f98,2020-11-19_03h31.31.209,Colour_Similarity_Experiment,2020.1.2,Win32,60,5fb5945709dec70f2d595766,,,,,,,,,,,,,,,,,,,,FF,,,,,,,,7,0.61383,,,,,,,,,,,,,,,,,,,,,,,,,,,,3,34,80,1,0,0,response1disk,4,15,12,1,0,0,rectangle,15,12,1,0,0,4,5,"[65,11,4,322,138,307,77,200,283,13,58,247,311,78,192,85,231,272,42,14]",15,12,1,0,0,0,180,17,17,110,1,,,,,,,,,,,,,,,,,,,,,
,,,,,,,,,,,,,,,,,,,,,,,,,,,,,,,,,,,,,,,,,,,5fa27915a7a32b44f3b2f44a,5fb5d8d42d9b681ceb7e4f98,2020-11-19_03h31.31.209,Colour_Similarity_Experiment,2020.1.2,Win32,60,5fb5945709dec70f2d595766,,,,,,,,,,,,,,,,,,,,FF,,,,,,,,7,0.653955,,,,,,,,,,,,,,,,,,,,,,,,,,,,1,32,87,1,0,0,response1disk,5,-6,-13,1,0,0,rectangle,-6,-13,1,0,0,4,2,"[65,11,4,322,138,307,77,200,283,13,58,247,311,78,192,85,231,272,42,14]",-6,-13,1,0,0,0,181,18,18,82,1,,,,,,,,,,,,,,,,,,,,,
,,,,,,,,,,,,,,,,,,,,,,,,,,,,,,,,,,,,,,,,,,,5fa27915a7a32b44f3b2f44a,5fb5d8d42d9b681ceb7e4f98,2020-11-19_03h31.31.209,Colour_Similarity_Experiment,2020.1.2,Win32,60,5fb5945709dec70f2d595766,,,,,,,,,,,,,,,,,,,,PF,,,,,,,,7,0.464535,,,,,,,,,,,,,,,,,,,,,,,,,,,,6,35,65,1,0,0,response1disk,4,11,2,1,0,0,rectangle,11,2,1,0,0,4,2,"[65,11,4,322,138,307,77,200,283,13,58,247,311,78,192,85,231,272,42,14]",11,2,1,0,0,0,182,19,19,33,1,,,,,,,,,,,,,,,,,,,,,
,,,,,,,,,,,,,,,,,,,,,,,,,,,,,,,,,,,,,,,,,,,5fa27915a7a32b44f3b2f44a,5fb5d8d42d9b681ceb7e4f98,2020-11-19_03h31.31.209,Colour_Similarity_Experiment,2020.1.2,Win32,60,5fb5945709dec70f2d595766,,,,,,,,,,,,,,,,,,,,FF,,,,,,,,7,0.826535,,,,,,,,,,,,,,,,,,,,,,,,,,,,6,29,67,1,0,0,response1disk,9,12,12,1,0,0,rectangle,12,12,1,0,0,4,5,"[65,11,4,322,138,307,77,200,283,13,58,247,311,78,192,85,231,272,42,14]",12,12,1,0,0,0,183,20,20,160,1,,,,,,,,,,,,,,,,,,,,,
,,,,,,,,,,,,,,,,,,,,,,,,,,,,,,,,,,,,,,,,,,,5fa27915a7a32b44f3b2f44a,5fb5d8d42d9b681ceb7e4f98,2020-11-19_03h31.31.209,Colour_Similarity_Experiment,2020.1.2,Win32,60,5fb5945709dec70f2d595766,,,,,,,,,,,,,,,,,,,,PF,,,,,,,,7,0.426765,,,,,,,,,,,,,,,,,,,,,,,,,,,,3,25,58,1,0,0,response1disk,6,10,12,1,0,0,rectangle,10,12,1,0,0,4,5,"[65,11,4,322,138,307,77,200,283,13,58,247,311,78,192,85,231,272,42,14]",10,12,1,0,0,0,184,21,21,47,1,,,,,,,,,,,,,,,,,,,,,
,,,,,,,,,,,,,,,,,,,,,,,,,,,,,,,,,,,,,,,,,,,5fa27915a7a32b44f3b2f44a,5fb5d8d42d9b681ceb7e4f98,2020-11-19_03h31.31.209,Colour_Similarity_Experiment,2020.1.2,Win32,60,5fb5945709dec70f2d595766,,,,,,,,,,,,,,,,,,,,PF,,,,,,,,7,0.572595,,,,,,,,,,,,,,,,,,,,,,,,,,,,9,29,60,1,0,0,response1disk,2,11,15,1,0,0,rectangle,11,15,1,0,0,4,3,"[65,11,4,322,138,307,77,200,283,13,58,247,311,78,192,85,231,272,42,14]",11,15,1,0,0,0,185,22,22,157,1,,,,,,,,,,,,,,,,,,,,,
,,,,,,,,,,,,,,,,,,,,,,,,,,,,,,,,,,,,,,,,,,,5fa27915a7a32b44f3b2f44a,5fb5d8d42d9b681ceb7e4f98,2020-11-19_03h31.31.209,Colour_Similarity_Experiment,2020.1.2,Win32,60,5fb5945709dec70f2d595766,,,,,,,,,,,,,,,,,,,,FF,,,,,,,,7,0.50623,,,,,,,,,,,,,,,,,,,,,,,,,,,,7,35,59,1,0,0,response1disk,1,11,12,1,0,0,rectangle,11,12,1,0,0,4,3,"[65,11,4,322,138,307,77,200,283,13,58,247,311,78,192,85,231,272,42,14]",11,12,1,0,0,0,186,23,23,132,1,,,,,,,,,,,,,,,,,,,,,
,,,,,,,,,,,,,,,,,,,,,,,,,,,,,,,,,,,,,,,,,,,5fa27915a7a32b44f3b2f44a,5fb5d8d42d9b681ceb7e4f98,2020-11-19_03h31.31.209,Colour_Similarity_Experiment,2020.1.2,Win32,60,5fb5945709dec70f2d595766,,,,,,,,,,,,,,,,,,,,FF,,,,,,,,7,0.693115,,,,,,,,,,,,,,,,,,,,,,,,,,,,4,31,64,1,0,0,response1disk,7,8,13,1,0,0,rectangle,8,13,1,0,0,4,7,"[65,11,4,322,138,307,77,200,283,13,58,247,311,78,192,85,231,272,42,14]",8,13,1,0,0,0,187,24,24,87,1,,,,,,,,,,,,,,,,,,,,,
,,,,,,,,,,,,,,,,,,,,,,,,,,,,,,,,,,,,,,,,,,,5fa27915a7a32b44f3b2f44a,5fb5d8d42d9b681ceb7e4f98,2020-11-19_03h31.31.209,Colour_Similarity_Experiment,2020.1.2,Win32,60,5fb5945709dec70f2d595766,,,,,,,,,,,,,,,,,,,,PF,,,,,,,,7,2.32071,,,,,,,,,,,,,,,,,,,,,,,,,,,,3,46,101,1,0,0,response1disk,8,3,10,1,0,0,rectangle,3,10,1,0,0,4,4,"[65,11,4,322,138,307,77,200,283,13,58,247,311,78,192,85,231,272,42,14]",3,10,1,0,0,0,188,25,25,3,1,,,,,,,,,,,,,,,,,,,,,
,,,,,,,,,,,,,,,,,,,,,,,,,,,,,,,,,,,,,,,,,,,5fa27915a7a32b44f3b2f44a,5fb5d8d42d9b681ceb7e4f98,2020-11-19_03h31.31.209,Colour_Similarity_Experiment,2020.1.2,Win32,60,5fb5945709dec70f2d595766,,,,,,,,,,,,,,,,,,,,PF,,,,,,,,7,0.42673,,,,,,,,,,,,,,,,,,,,,,,,,,,,5,33,56,1,0,0,response1disk,6,16,12,1,0,0,rectangle,16,12,1,0,0,4,4,"[65,11,4,322,138,307,77,200,283,13,58,247,311,78,192,85,231,272,42,14]",16,12,1,0,0,0,189,26,26,103,1,,,,,,,,,,,,,,,,,,,,,
,,,,,,,,,,,,,,,,,,,,,,,,,,,,,,,,,,,,,,,,,,,5fa27915a7a32b44f3b2f44a,5fb5d8d42d9b681ceb7e4f98,2020-11-19_03h31.31.209,Colour_Similarity_Experiment,2020.1.2,Win32,60,5fb5945709dec70f2d595766,,,,,,,,,,,,,,,,,,,,FF,,,,,,,,7,0.453515,,,,,,,,,,,,,,,,,,,,,,,,,,,,8,30,61,1,0,0,response1disk,5,1,13,1,0,0,rectangle,1,13,1,0,0,4,4,"[65,11,4,322,138,307,77,200,283,13,58,247,311,78,192,85,231,272,42,14]",1,13,1,0,0,0,190,27,27,152,1,,,,,,,,,,,,,,,,,,,,,
,,,,,,,,,,,,,,,,,,,,,,,,,,,,,,,,,,,,,,,,,,,5fa27915a7a32b44f3b2f44a,5fb5d8d42d9b681ceb7e4f98,2020-11-19_03h31.31.209,Colour_Similarity_Experiment,2020.1.2,Win32,60,5fb5945709dec70f2d595766,,,,,,,,,,,,,,,,,,,,FF,,,,,,,,0,0.719265,,,,,,,,,,,,,,,,,,,,,,,,,,,,4,-49,94,1,0,0,response7disk,4,-4,8,1,0,0,rectangle,-4,8,1,0,0,4,5,"[65,11,4,322,138,307,77,200,283,13,58,247,311,78,192,85,231,272,42,14]",-4,8,1,0,0,0,191,28,28,84,1,,,,,,,,,,,,,,,,,,,,,
,,,,,,,,,,,,,,,,,,,,,,,,,,,,,,,,,,,,,,,,,,,5fa27915a7a32b44f3b2f44a,5fb5d8d42d9b681ceb7e4f98,2020-11-19_03h31.31.209,Colour_Similarity_Experiment,2020.1.2,Win32,60,5fb5945709dec70f2d595766,,,,,,,,,,,,,,,,,,,,FF,,,,,,,,7,0.693365,,,,,,,,,,,,,,,,,,,,,,,,,,,,6,24,71,1,0,0,response1disk,4,8,18,1,0,0,rectangle,-49,-99,1,0,0,3,3,"[65,11,4,322,138,307,77,200,283,13,58,247,311,78,192,85,231,272,42,14]",-9,19,1,0,0,0,192,29,29,56,1,response5disk_3,rectangle,,,,,,,,,,,,,,,,,,,
,,,,,,,,,,,,,,,,,,,,,,,,,,,,,,,,,,,,,,,,,,,5fa27915a7a32b44f3b2f44a,5fb5d8d42d9b681ceb7e4f98,2020-11-19_03h31.31.209,Colour_Similarity_Experiment,2020.1.2,Win32,60,5fb5945709dec70f2d595766,,,,,,,,,,,,,,,,,,,,PF,,,,,,,,7,1.37408,,,,,,,,,,,,,,,,,,,,,,,,,,,,9,39,84,1,0,0,response1disk,4,11,17,1,0,0,rectangle,11,17,1,0,0,3,1,"[65,11,4,322,138,307,77,200,283,13,58,247,311,78,192,85,231,272,42,14]",11,17,1,0,0,0,193,30,30,114,1,,,,,,,,,,,,,,,,,,,,,
,,,,,,,,,,,,,,,,,,,,,,,,,,,,,,,,,,,,,,,,,,,5fa27915a7a32b44f3b2f44a,5fb5d8d42d9b681ceb7e4f98,2020-11-19_03h31.31.209,Colour_Similarity_Experiment,2020.1.2,Win32,60,5fb5945709dec70f2d595766,,,,,,,,,,,,,,,,,,,,FF,,,,,,,,7,0.400405,,,,,,,,,,,,,,,,,,,,,,,,,,,,2,33,61,1,0,0,response1disk,3,2,-8,1,0,0,rectangle,2,-8,1,0,0,3,1,"[65,11,4,322,138,307,77,200,283,13,58,247,311,78,192,85,231,272,42,14]",2,-8,1,0,0,0,194,31,31,104,1,,,,,,,,,,,,,,,,,,,,,
,,,,,,,,,,,,,,,,,,,,,,,,,,,,,,,,,,,,,,,,,,,5fa27915a7a32b44f3b2f44a,5fb5d8d42d9b681ceb7e4f98,2020-11-19_03h31.31.209,Colour_Similarity_Experiment,2020.1.2,Win32,60,5fb5945709dec70f2d595766,,,,,,,,,,,,,,,,,,,,PF,,,,,,,,0,0.84411,,,,,,,,,,,,,,,,,,,,,,,,,,,,3,-29,58,1,0,0,response7disk,3,-9,5,1,0,0,rectangle,-9,5,1,0,0,3,2,"[65,11,4,322,138,307,77,200,283,13,58,247,311,78,192,85,231,272,42,14]",-9,5,1,0,0,0,195,32,32,4,1,,,,,,,,,,,,,,,,,,,,,
,,,,,,,,,,,,,,,,,,,,,,,,,,,,,,,,,,,,,,,,,,,5fa27915a7a32b44f3b2f44a,5fb5d8d42d9b681ceb7e4f98,2020-11-19_03h31.31.209,Colour_Similarity_Experiment,2020.1.2,Win32,60,5fb5945709dec70f2d595766,,,,,,,,,,,,,,,,,,,,FF,,,,,,,,7,0.75942,,,,,,,,,,,,,,,,,,,,,,,,,,,,3,25,56,1,0,0,response1disk,2,2,7,1,0,0,rectangle,2,7,1,0,0,3,2,"[65,11,4,322,138,307,77,200,283,13,58,247,311,78,192,85,231,272,42,14]",2,7,1,0,0,0,196,33,33,93,1,,,,,,,,,,,,,,,,,,,,,
,,,,,,,,,,,,,,,,,,,,,,,,,,,,,,,,,,,,,,,,,,,5fa27915a7a32b44f3b2f44a,5fb5d8d42d9b681ceb7e4f98,2020-11-19_03h31.31.209,Colour_Similarity_Experiment,2020.1.2,Win32,60,5fb5945709dec70f2d595766,,,,,,,,,,,,,,,,,,,,PF,,,,,,,,7,0.52019,,,,,,,,,,,,,,,,,,,,,,,,,,,,2,23,60,1,0,0,response1disk,6,-4,-5,1,0,0,rectangle,-4,-5,1,0,0,3,4,"[65,11,4,322,138,307,77,200,283,13,58,247,311,78,192,85,231,272,42,14]",-4,-5,1,0,0,0,197,34,34,113,1,,,,,,,,,,,,,,,,,,,,,
,,,,,,,,,,,,,,,,,,,,,,,,,,,,,,,,,,,,,,,,,,,5fa27915a7a32b44f3b2f44a,5fb5d8d42d9b681ceb7e4f98,2020-11-19_03h31.31.209,Colour_Similarity_Experiment,2020.1.2,Win32,60,5fb5945709dec70f2d595766,,,,,,,,,,,,,,,,,,,,FF,,,,,,,,7,0.533595,,,,,,,,,,,,,,,,,,,,,,,,,,,,7,24,53,1,0,0,response1disk,3,8,10,1,0,0,rectangle,8,10,1,0,0,3,0,"[65,11,4,322,138,307,77,200,283,13,58,247,311,78,192,85,231,272,42,14]",8,10,1,0,0,0,198,35,35,73,1,,,,,,,,,,,,,,,,,,,,,
,,,,,,,,,,,,,,,,,,,,,,,,,,,,,,,,,,,,,,,,,,,5fa27915a7a32b44f3b2f44a,5fb5d8d42d9b681ceb7e4f98,2020-11-19_03h31.31.209,Colour_Similarity_Experiment,2020.1.2,Win32,60,5fb5945709dec70f2d595766,,,,,,,,,,,,,,,,,,,,FF,,,,,,,,7,0.38248,,,,,,,,,,,,,,,,,,,,,,,,,,,,8,28,61,1,0,0,response1disk,6,12,7,1,0,0,rectangle,12,7,1,0,0,3,3,"[65,11,4,322,138,307,77,200,283,13,58,247,311,78,192,85,231,272,42,14]",12,7,1,0,0,0,199,36,36,37,1,,,,,,,,,,,,,,,,,,,,,
,,,,,,,,,,,,,,,,,,,,,,,,,,,,,,,,,,,,,,,,,,,5fa27915a7a32b44f3b2f44a,5fb5d8d42d9b681ceb7e4f98,2020-11-19_03h31.31.209,Colour_Similarity_Experiment,2020.1.2,Win32,60,5fb5945709dec70f2d595766,,,,,,,,,,,,,,,,,,,,FF,,,,,,,,7,0.41283,,,,,,,,,,,,,,,,,,,,,,,,,,,,6,25,56,1,0,0,response1disk,1,7,8,1,0,0,rectangle,-92,-54,1,0,0,3,2,"[65,11,4,322,138,307,77,200,283,13,58,247,311,78,192,85,231,272,42,14]",-11,2,1,0,0,0,200,37,37,5,1,response5disk_3,rectangle,,,,,,,,,,,,,,,,,,,
,,,,,,,,,,,,,,,,,,,,,,,,,,,,,,,,,,,,,,,,,,,5fa27915a7a32b44f3b2f44a,5fb5d8d42d9b681ceb7e4f98,2020-11-19_03h31.31.209,Colour_Similarity_Experiment,2020.1.2,Win32,60,5fb5945709dec70f2d595766,,,,,,,,,,,,,,,,,,,,PF,,,,,,,,7,1.32048,,,,,,,,,,,,,,,,,,,,,,,,,,,,1,27,65,1,0,0,response1disk,8,-3,1,1,0,0,rectangle,-3,1,1,0,0,3,0,"[65,11,4,322,138,307,77,200,283,13,58,247,311,78,192,85,231,272,42,14]",-3,1,1,0,0,0,201,38,38,65,1,,,,,,,,,,,,,,,,,,,,,
,,,,,,,,,,,,,,,,,,,,,,,,,,,,,,,,,,,,,,,,,,,5fa27915a7a32b44f3b2f44a,5fb5d8d42d9b681ceb7e4f98,2020-11-19_03h31.31.209,Colour_Similarity_Experiment,2020.1.2,Win32,60,5fb5945709dec70f2d595766,,,,,,,,,,,,,,,,,,,,PF,,,,,,,,7,0.39972,,,,,,,,,,,,,,,,,,,,,,,,,,,,5,29,60,1,0,0,response1disk,1,6,4,1,0,0,rectangle,6,4,1,0,0,3,1,"[65,11,4,322,138,307,77,200,283,13,58,247,311,78,192,85,231,272,42,14]",6,4,1,0,0,0,202,39,39,159,1,,,,,,,,,,,,,,,,,,,,,
,,,,,,,,,,,,,,,,,,,,,,,,,,,,,,,,,,,,,,,,,,,5fa27915a7a32b44f3b2f44a,5fb5d8d42d9b681ceb7e4f98,2020-11-19_03h31.31.209,Colour_Similarity_Experiment,2020.1.2,Win32,60,5fb5945709dec70f2d595766,,,,,,,,,,,,,,,,,,,,FF,,,,,,,,0,0.773325,,,,,,,,,,,,,,,,,,,,,,,,,,,,7,-38,96,1,0,0,response7disk,7,-6,4,1,0,0,rectangle,-6,4,1,0,0,3,7,"[65,11,4,322,138,307,77,200,283,13,58,247,311,78,192,85,231,272,42,14]",-6,4,1,0,0,0,203,40,40,34,1,,,,,,,,,,,,,,,,,,,,,
,,,,,,,,,,,,,,,,,,,,,,,,,,,,,,,,,,,,,,,,,,,5fa27915a7a32b44f3b2f44a,5fb5d8d42d9b681ceb7e4f98,2020-11-19_03h31.31.209,Colour_Similarity_Experiment,2020.1.2,Win32,60,5fb5945709dec70f2d595766,,,,,,,,,,,,,,,,,,,,PF,,,,,,,,7,0.440565,,,,,,,,,,,,,,,,,,,,,,,,,,,,3,31,69,1,0,0,response1disk,2,2,19,1,0,0,rectangle,2,19,1,0,0,3,2,"[65,11,4,322,138,307,77,200,283,13,58,247,311,78,192,85,231,272,42,14]",2,19,1,0,0,0,204,41,41,36,1,,,,,,,,,,,,,,,,,,,,,
,,,,,,,,,,,,,,,,,,,,,,,,,,,,,,,,,,,,,,,,,,,5fa27915a7a32b44f3b2f44a,5fb5d8d42d9b681ceb7e4f98,2020-11-19_03h31.31.209,Colour_Similarity_Experiment,2020.1.2,Win32,60,5fb5945709dec70f2d595766,,,,,,,,,,,,,,,,,,,,PF,,,,,,,,7,0.427015,,,,,,,,,,,,,,,,,,,,,,,,,,,,4,36,80,1,0,0,response1disk,9,12,21,1,0,0,rectangle,12,21,1,0,0,3,3,"[65,11,4,322,138,307,77,200,283,13,58,247,311,78,192,85,231,272,42,14]",12,21,1,0,0,0,205,42,42,75,1,,,,,,,,,,,,,,,,,,,,,
,,,,,,,,,,,,,,,,,,,,,,,,,,,,,,,,,,,,,,,,,,,5fa27915a7a32b44f3b2f44a,5fb5d8d42d9b681ceb7e4f98,2020-11-19_03h31.31.209,Colour_Similarity_Experiment,2020.1.2,Win32,60,5fb5945709dec70f2d595766,,,,,,,,,,,,,,,,,,,,PF,,,,,,,,0,0.8049,,,,,,,,,,,,,,,,,,,,,,,,,,,,5,-37,81,1,0,0,response7disk,5,-4,-14,1,0,0,rectangle,-4,-14,1,0,0,3,0,"[65,11,4,322,138,307,77,200,283,13,58,247,311,78,192,85,231,272,42,14]",-4,-14,1,0,0,0,206,43,43,94,1,,,,,,,,,,,,,,,,,,,,,
,,,,,,,,,,,,,,,,,,,,,,,,,,,,,,,,,,,,,,,,,,,5fa27915a7a32b44f3b2f44a,5fb5d8d42d9b681ceb7e4f98,2020-11-19_03h31.31.209,Colour_Similarity_Experiment,2020.1.2,Win32,60,5fb5945709dec70f2d595766,,,,,,,,,,,,,,,,,,,,PF,,,,,,,,0,0.57474,,,,,,,,,,,,,,,,,,,,,,,,,,,,6,-25,73,1,0,0,response7disk,2,6,15,1,0,0,rectangle,6,15,1,0,0,3,1,"[65,11,4,322,138,307,77,200,283,13,58,247,311,78,192,85,231,272,42,14]",6,15,1,0,0,0,207,44,44,130,1,,,,,,,,,,,,,,,,,,,,,
